[{"stimulus":"../img/FoodImages/foodStimulus_22.jpg","rt":181.8300001323223,"rating":"4","trial_type":"image-slider-response","trial_index":40,"time_elapsed":100466,"internal_node_id":"0.0-7.0-32.0","browser_name":"Chrome","browser_type":"85.0","subject":"e2tp9d4","interaction":"[]","windowWidth":1307,"windowHight":1120},{"stimulus":"../img/FoodImages/foodStimulus_47.jpg","rt":169.3899999372661,"rating":"5","trial_type":"image-slider-response","trial_index":41,"time_elapsed":100636,"internal_node_id":"0.0-7.0-33.0","browser_name":"Chrome","browser_type":"85.0","subject":"e2tp9d4","interaction":"[]","windowWidth":1307,"windowHight":1120},{"stimulus":"../img/FoodImages/foodStimulus_23.jpg","rt":188.90000018291175,"rating":"0","trial_type":"image-slider-response","trial_index":42,"time_elapsed":100826,"internal_node_id":"0.0-7.0-34.0","browser_name":"Chrome","browser_type":"85.0","subject":"e2tp9d4","interaction":"[]","windowWidth":1307,"windowHight":1120},{"stimulus":"../img/FoodImages/foodStimulus_29.jpg","rt":168.95999992266297,"rating":"2","trial_type":"image-slider-response","trial_index":43,"time_elapsed":100997,"internal_node_id":"0.0-7.0-35.0","browser_name":"Chrome","browser_type":"85.0","subject":"e2tp9d4","interaction":"[]","windowWidth":1307,"windowHight":1120},{"stimulus":"../img/FoodImages/foodStimulus_21.jpg","rt":170.19500001333654,"rating":"0","trial_type":"image-slider-response","trial_index":44,"time_elapsed":101168,"internal_node_id":"0.0-7.0-36.0","browser_name":"Chrome","browser_type":"85.0","subject":"e2tp9d4","interaction":"[]","windowWidth":1307,"windowHight":1120},{"stimulus":"../img/FoodImages/foodStimulus_33.jpg","rt":176.95500003173947,"rating":"4","trial_type":"image-slider-response","trial_index":45,"time_elapsed":101346,"internal_node_id":"0.0-7.0-37.0","browser_name":"Chrome","browser_type":"85.0","subject":"e2tp9d4","interaction":"[]","windowWidth":1307,"windowHight":1120},{"stimulus":"../img/FoodImages/foodStimulus_4.jpg","rt":163.25500002130866,"rating":"5","trial_type":"image-slider-response","trial_index":46,"time_elapsed":101510,"internal_node_id":"0.0-7.0-38.0","browser_name":"Chrome","browser_type":"85.0","subject":"e2tp9d4","interaction":"[]","windowWidth":1307,"windowHight":1120},{"stimulus":"../img/FoodImages/foodStimulus_14.jpg","rt":162.28499985300004,"rating":"2","trial_type":"image-slider-response","trial_index":47,"time_elapsed":101674,"internal_node_id":"0.0-7.0-39.0","browser_name":"Chrome","browser_type":"85.0","subject":"e2tp9d4","interaction":"[]","windowWidth":1307,"windowHight":1120},{"stimulus":"../img/FoodImages/foodStimulus_18.jpg","rt":191.95000012405217,"rating":"2","trial_type":"image-slider-response","trial_index":48,"time_elapsed":101867,"internal_node_id":"0.0-7.0-40.0","browser_name":"Chrome","browser_type":"85.0","subject":"e2tp9d4","interaction":"[]","windowWidth":1307,"windowHight":1120},{"stimulus":"../img/FoodImages/foodStimulus_48.jpg","rt":187.59500002488494,"rating":"2","trial_type":"image-slider-response","trial_index":49,"time_elapsed":102056,"internal_node_id":"0.0-7.0-41.0","browser_name":"Chrome","browser_type":"85.0","subject":"e2tp9d4","interaction":"[]","windowWidth":1307,"windowHight":1120},{"stimulus":"../img/FoodImages/foodStimulus_1.jpg","rt":178.5999999847263,"rating":"4","trial_type":"image-slider-response","trial_index":50,"time_elapsed":102235,"internal_node_id":"0.0-7.0-42.0","browser_name":"Chrome","browser_type":"85.0","subject":"e2tp9d4","interaction":"[]","windowWidth":1307,"windowHight":1120},{"stimulus":"../img/FoodImages/foodStimulus_0.jpg","rt":169.62500009685755,"rating":"5","trial_type":"image-slider-response","trial_index":51,"time_elapsed":102407,"internal_node_id":"0.0-7.0-43.0","browser_name":"Chrome","browser_type":"85.0","subject":"e2tp9d4","interaction":"[]","windowWidth":1307,"windowHight":1120},{"stimulus":"../img/FoodImages/foodStimulus_7.jpg","rt":161.67999990284443,"rating":"3","trial_type":"image-slider-response","trial_index":52,"time_elapsed":102570,"internal_node_id":"0.0-7.0-44.0","browser_name":"Chrome","browser_type":"85.0","subject":"e2tp9d4","interaction":"[]","windowWidth":1307,"windowHight":1120},{"stimulus":"../img/FoodImages/foodStimulus_5.jpg","rt":176.8800001591444,"rating":"5","trial_type":"image-slider-response","trial_index":53,"time_elapsed":102748,"internal_node_id":"0.0-7.0-45.0","browser_name":"Chrome","browser_type":"85.0","subject":"e2tp9d4","interaction":"[]","windowWidth":1307,"windowHight":1120},{"stimulus":"../img/FoodImages/foodStimulus_2.jpg","rt":169.9300000909716,"rating":"5","trial_type":"image-slider-response","trial_index":54,"time_elapsed":102919,"internal_node_id":"0.0-7.0-46.0","browser_name":"Chrome","browser_type":"85.0","subject":"e2tp9d4","interaction":"[]","windowWidth":1307,"windowHight":1120},{"stimulus":"../img/FoodImages/foodStimulus_10.jpg","rt":187.54999991506338,"rating":"1","trial_type":"image-slider-response","trial_index":55,"time_elapsed":103107,"internal_node_id":"0.0-7.0-47.0","browser_name":"Chrome","browser_type":"85.0","subject":"e2tp9d4","interaction":"[]","windowWidth":1307,"windowHight":1120},{"stimulus":"../img/FoodImages/foodStimulus_44.jpg","rt":143.00999999977648,"rating":"4","trial_type":"image-slider-response","trial_index":56,"time_elapsed":103252,"internal_node_id":"0.0-7.0-48.0","browser_name":"Chrome","browser_type":"85.0","subject":"e2tp9d4","interaction":"[]","windowWidth":1307,"windowHight":1120},{"stimulus":"../img/FoodImages/foodStimulus_49.jpg","rt":180.30499992892146,"rating":"2","trial_type":"image-slider-response","trial_index":57,"time_elapsed":103433,"internal_node_id":"0.0-7.0-49.0","browser_name":"Chrome","browser_type":"85.0","subject":"e2tp9d4","interaction":"[]","windowWidth":1307,"windowHight":1120},{"rt":1525.7999999448657,"stimulus":"<div><font size=120%; font color = 'green';>Food preference </font><br/>\n                                        <br><br/>\n            In this part of the study you will be choosing between snack foods. <br/>    \n            Each round, you will see two snack foods on the screen. <br/>    \n            You have to choose which snack food you would prefer to eat. <br/>   \n            To select the left food, press the <b><font color='green'>F</font></b> key. <br/>\n            To select the right food, press  the <b><font color='green'>J</font></b> key. <br/>\n            After each choice, stare at the red circle at the center of the screen.  <br/>\n            <br><br/>\n           When you are ready, press the  <b>SPACE BAR</b> to continue.  </div>","key_press":32,"trial_type":"html-keyboard-response","trial_index":58,"time_elapsed":104960,"internal_node_id":"0.0-8.0","browser_name":"Chrome","browser_type":"85.0","subject":"e2tp9d4","interaction":"[]","windowWidth":1307,"windowHight":1120},{"rt":1554.3750000651926,"stimulus":"<div>We need to redo the calibration and validation before you begin with the choice task. </br>\n   As before, make sure you stare at each dot until it disappears and make sure you don’t move your head.</br>\n   <br></br>\n   Please press <b>SPACE BAR</b> when you are ready to begin.</div>","key_press":32,"trial_type":"html-keyboard-response","trial_index":59,"time_elapsed":107016,"internal_node_id":"0.0-9.0-0.0","browser_name":"Chrome","browser_type":"85.0","subject":"e2tp9d4","interaction":"[]","windowWidth":1307,"windowHight":1120},{"validationPoints":"[{\"x\":\"50%\",\"y\":\"20%\",\"valid\":true,\"hitRatio\":1},{\"x\":\"65%\",\"y\":\"35%\",\"valid\":true,\"hitRatio\":1},{\"x\":\"80%\",\"y\":\"80%\",\"valid\":true,\"hitRatio\":0.9745762711864406},{\"x\":\"35%\",\"y\":\"35%\",\"valid\":true,\"hitRatio\":1},{\"x\":\"20%\",\"y\":\"80%\",\"valid\":true,\"hitRatio\":1},{\"x\":\"80%\",\"y\":\"50%\",\"valid\":true,\"hitRatio\":1},{\"x\":\"20%\",\"y\":\"50%\",\"valid\":true,\"hitRatio\":0.8706896551724138},{\"x\":\"50%\",\"y\":\"80%\",\"valid\":true,\"hitRatio\":0.9741379310344828},{\"x\":\"80%\",\"y\":\"20%\",\"valid\":true,\"hitRatio\":0.8558558558558559},{\"x\":\"20%\",\"y\":\"20%\",\"valid\":true,\"hitRatio\":0.8260869565217391},{\"x\":\"35%\",\"y\":\"65%\",\"valid\":true,\"hitRatio\":1},{\"x\":\"50%\",\"y\":\"50%\",\"valid\":true,\"hitRatio\":0.990990990990991}]","accuracy":1,"trial_type":"eye-tracking","trial_index":60,"time_elapsed":183773,"internal_node_id":"0.0-9.0-1.0","browser_name":"Chrome","browser_type":"85.0","subject":"e2tp9d4","interaction":"[]","windowWidth":1307,"windowHight":1120},{"rt":302.970000077039,"stimulus":"<div><font size=120%; font color = 'green';>Food preference</font><br/>\n                                        <br><br/>\n       Now, we will begin with the choice task. Please keep your head still, otherwise we may have to redo the calibration and validation.<br/>\n       There will be a break halfway through the task. During the break you can move your head if you need to.    <br/>\n       As a quick reminder, you are choosing which food you would prefer to eat: <br/>\n       If you want to eat to the left food,  press  the <b><font color='green'>F</font></b> key; <br/>\n       If you want to eat to the right food,  press the <b><font color='green'>J</font></b>  key;<br/>\n                  <br><br/>\n       After each choice, make sure to stare at the red circles that will appear on the screen, until they disappear.  <br/>\n       This is part of ongoing adjustments to the eye-tracking.    <br/>\n       <br><br/>\n       NOTE: If the computer thinks that you are looking somewhere other than directly at the red dot,   <br/>\n       you may need to redo the calibration and validation process, slowing down the study.   <br/>\n                                               <br><br/>\n      When you are ready, press the <b>SPACE BAR</b> to begin with a couple of practice rounds. </div>","key_press":32,"trial_type":"html-keyboard-response","trial_index":61,"time_elapsed":184078,"internal_node_id":"0.0-10.0","browser_name":"Chrome","browser_type":"85.0","subject":"e2tp9d4","interaction":"[]","windowWidth":1307,"windowHight":1120},{"rt":null,"stimulus":"<span id=\"calibration_dot_instruction\"></span>","key_press":null,"trial_type":"html-keyboard-response","trial_index":62,"time_elapsed":185081,"internal_node_id":"0.0-11.0-0.0","browser_name":"Chrome","browser_type":"85.0","subject":"e2tp9d4","interaction":"[]","windowWidth":1307,"windowHight":1120},{"stimulus":["../img/pracImg/foodprac_2.jpg","../img/pracImg/foodprac_4.jpg"],"left_stimulus":"../img/pracImg/foodprac_2.jpg","right_stimulus":"../img/pracImg/foodprac_4.jpg","rt":4812.089999904856,"key_press":70,"choices":["F","J"],"eyeData":"{\"history\":[{\"relative-x\":0.4483550114766641,\"relative-y\":0.4732142857142857,\"relative-x2\":0.4483550114766641,\"relative-y2\":0.4732142857142857,\"elapse-time\":90.73000005446374},{\"relative-x\":0.49426166794185156,\"relative-y\":0.4473214285714286,\"relative-x2\":0.49426166794185156,\"relative-y2\":0.4473214285714286,\"elapse-time\":170.21999997086823},{\"relative-x\":0.468247895944912,\"relative-y\":0.4035714285714286,\"relative-x2\":0.468247895944912,\"relative-y2\":0.4035714285714286,\"elapse-time\":251.3950001448393},{\"relative-x\":0.5019127773527161,\"relative-y\":0.4616071428571429,\"relative-x2\":0.5019127773527161,\"relative-y2\":0.4616071428571429,\"elapse-time\":332.2700001299381},{\"relative-x\":0.43075745983167557,\"relative-y\":0.38839285714285715,\"relative-x2\":0.43075745983167557,\"relative-y2\":0.38839285714285715,\"elapse-time\":412.8650000784546},{\"relative-x\":0.4628921193573068,\"relative-y\":0.42589285714285713,\"relative-x2\":0.4628921193573068,\"relative-y2\":0.42589285714285713,\"elapse-time\":492.6549999509007},{\"relative-x\":0.24942616679418517,\"relative-y\":0.43392857142857144,\"relative-x2\":0.24942616679418517,\"relative-y2\":0.43392857142857144,\"elapse-time\":571.2250000797212},{\"relative-x\":0.2325937260902831,\"relative-y\":0.4080357142857143,\"relative-x2\":0.2325937260902831,\"relative-y2\":0.4080357142857143,\"elapse-time\":649.6000001206994},{\"relative-x\":0.13236419280795717,\"relative-y\":0.43125,\"relative-x2\":0.13236419280795717,\"relative-y2\":0.43125,\"elapse-time\":733.4249999839813},{\"relative-x\":0.18974751338944146,\"relative-y\":0.39107142857142857,\"relative-x2\":0.18974751338944146,\"relative-y2\":0.39107142857142857,\"elapse-time\":813.9649999793619},{\"relative-x\":0.5967865340474369,\"relative-y\":0.43392857142857144,\"relative-x2\":0.5967865340474369,\"relative-y2\":0.43392857142857144,\"elapse-time\":891.3600000087172},{\"relative-x\":0.6465187452180566,\"relative-y\":0.44107142857142856,\"relative-x2\":0.6465187452180566,\"relative-y2\":0.44107142857142856,\"elapse-time\":969.8050001170486},{\"relative-x\":0.6426931905126243,\"relative-y\":0.43392857142857144,\"relative-x2\":0.6426931905126243,\"relative-y2\":0.43392857142857144,\"elapse-time\":1052.129999967292},{\"relative-x\":0.7758224942616679,\"relative-y\":0.4107142857142857,\"relative-x2\":0.7758224942616679,\"relative-y2\":0.4107142857142857,\"elapse-time\":1132.9000000841916},{\"relative-x\":0.8385615914307575,\"relative-y\":0.34464285714285714,\"relative-x2\":0.8385615914307575,\"relative-y2\":0.34464285714285714,\"elapse-time\":1213.4300000034273},{\"relative-x\":0.749043611323642,\"relative-y\":0.3848214285714286,\"relative-x2\":0.749043611323642,\"relative-y2\":0.3848214285714286,\"elapse-time\":1290.4900000430644},{\"relative-x\":0.7429227237949503,\"relative-y\":0.375,\"relative-x2\":0.7429227237949503,\"relative-y2\":0.375,\"elapse-time\":1370.145000051707},{\"relative-x\":0.864575363427697,\"relative-y\":0.3580357142857143,\"relative-x2\":0.864575363427697,\"relative-y2\":0.3580357142857143,\"elapse-time\":1455.8250000700355},{\"relative-x\":0.8576893649579189,\"relative-y\":0.39285714285714285,\"relative-x2\":0.8576893649579189,\"relative-y2\":0.39285714285714285,\"elapse-time\":1533.1000001169741},{\"relative-x\":0.8867635807192042,\"relative-y\":0.3821428571428571,\"relative-x2\":0.8867635807192042,\"relative-y2\":0.3821428571428571,\"elapse-time\":1611.7300000041723},{\"relative-x\":0.8592195868400918,\"relative-y\":0.38660714285714287,\"relative-x2\":0.8592195868400918,\"relative-y2\":0.38660714285714287,\"elapse-time\":1691.4000001270324},{\"relative-x\":0.2654934965570008,\"relative-y\":0.46785714285714286,\"relative-x2\":0.2654934965570008,\"relative-y2\":0.46785714285714286,\"elapse-time\":1769.6299999952316},{\"relative-x\":0.2111706197398623,\"relative-y\":0.5830357142857143,\"relative-x2\":0.2111706197398623,\"relative-y2\":0.5830357142857143,\"elapse-time\":1852.2900000680238},{\"relative-x\":0.162203519510329,\"relative-y\":0.4107142857142857,\"relative-x2\":0.162203519510329,\"relative-y2\":0.4107142857142857,\"elapse-time\":1931.675000116229},{\"relative-x\":0.1713848508033665,\"relative-y\":0.43214285714285716,\"relative-x2\":0.1713848508033665,\"relative-y2\":0.43214285714285716,\"elapse-time\":2013.2500000763685},{\"relative-x\":0.7895944912012242,\"relative-y\":0.47767857142857145,\"relative-x2\":0.7895944912012242,\"relative-y2\":0.47767857142857145,\"elapse-time\":2090.250000124797},{\"relative-x\":0.791124713083397,\"relative-y\":0.5098214285714285,\"relative-x2\":0.791124713083397,\"relative-y2\":0.5098214285714285,\"elapse-time\":2170.5100000835955},{\"relative-x\":0.8224942616679418,\"relative-y\":0.45803571428571427,\"relative-x2\":0.8224942616679418,\"relative-y2\":0.45803571428571427,\"elapse-time\":2254.729999927804},{\"relative-x\":0.9058913542463657,\"relative-y\":0.38125,\"relative-x2\":0.9058913542463657,\"relative-y2\":0.38125,\"elapse-time\":2332.2799999732524},{\"relative-x\":0.8607498087222647,\"relative-y\":0.3919642857142857,\"relative-x2\":0.8607498087222647,\"relative-y2\":0.3919642857142857,\"elapse-time\":2413.080000085756},{\"relative-x\":0.8339709257842387,\"relative-y\":0.3919642857142857,\"relative-x2\":0.8339709257842387,\"relative-y2\":0.3919642857142857,\"elapse-time\":2490.870000096038},{\"relative-x\":0.22647283856159142,\"relative-y\":0.43125,\"relative-x2\":0.22647283856159142,\"relative-y2\":0.43125,\"elapse-time\":2569.1599999554455},{\"relative-x\":0.20275439938791126,\"relative-y\":0.38839285714285715,\"relative-x2\":0.20275439938791126,\"relative-y2\":0.38839285714285715,\"elapse-time\":2654.395000077784},{\"relative-x\":0.2654934965570008,\"relative-y\":0.39285714285714285,\"relative-x2\":0.2654934965570008,\"relative-y2\":0.39285714285714285,\"elapse-time\":2732.6650000177324},{\"relative-x\":0.260902830910482,\"relative-y\":0.3982142857142857,\"relative-x2\":0.260902830910482,\"relative-y2\":0.3982142857142857,\"elapse-time\":2812.9900000058115},{\"relative-x\":0.22188217291507267,\"relative-y\":0.3964285714285714,\"relative-x2\":0.22188217291507267,\"relative-y2\":0.3964285714285714,\"elapse-time\":2891.880000010133},{\"relative-x\":0.2234123947972456,\"relative-y\":0.38660714285714287,\"relative-x2\":0.2234123947972456,\"relative-y2\":0.38660714285714287,\"elapse-time\":2970.2500000130385},{\"relative-x\":0.19510328997704668,\"relative-y\":0.39017857142857143,\"relative-x2\":0.19510328997704668,\"relative-y2\":0.39017857142857143,\"elapse-time\":3056.2100000679493},{\"relative-x\":0.15072685539403213,\"relative-y\":0.4446428571428571,\"relative-x2\":0.15072685539403213,\"relative-y2\":0.4446428571428571,\"elapse-time\":3134.04000014998},{\"relative-x\":0.23565416985462892,\"relative-y\":0.39017857142857143,\"relative-x2\":0.23565416985462892,\"relative-y2\":0.39017857142857143,\"elapse-time\":3209.840000141412},{\"relative-x\":0.1262433052792655,\"relative-y\":0.425,\"relative-x2\":0.1262433052792655,\"relative-y2\":0.425,\"elapse-time\":3293.1300001218915},{\"relative-x\":0.404743687834736,\"relative-y\":0.5696428571428571,\"relative-x2\":0.404743687834736,\"relative-y2\":0.5696428571428571,\"elapse-time\":3369.3949999287724},{\"relative-x\":0.7536342769701607,\"relative-y\":1.0839285714285714,\"relative-x2\":0.7536342769701607,\"relative-y2\":1.0839285714285714,\"elapse-time\":3450.1600000075996},{\"relative-x\":0.75592960979342,\"relative-y\":1.2276785714285714,\"relative-x2\":0.75592960979342,\"relative-y2\":1.2276785714285714,\"elapse-time\":3532.920000143349},{\"relative-x\":0.909716908951798,\"relative-y\":1.2375,\"relative-x2\":0.909716908951798,\"relative-y2\":1.2375,\"elapse-time\":3610.8750000130385},{\"relative-x\":0.6212700841622035,\"relative-y\":0.9651785714285714,\"relative-x2\":0.6212700841622035,\"relative-y2\":0.9651785714285714,\"elapse-time\":3691.31000014022},{\"relative-x\":0.4338179035960214,\"relative-y\":0.9803571428571428,\"relative-x2\":0.4338179035960214,\"relative-y2\":0.9803571428571428,\"elapse-time\":3769.4200000260025},{\"relative-x\":0.32134659525631215,\"relative-y\":0.5982142857142857,\"relative-x2\":0.32134659525631215,\"relative-y2\":0.5982142857142857,\"elapse-time\":3851.6400000080466},{\"relative-x\":0.2325937260902831,\"relative-y\":0.4732142857142857,\"relative-x2\":0.2325937260902831,\"relative-y2\":0.4732142857142857,\"elapse-time\":3931.245000101626},{\"relative-x\":0.17597551644988524,\"relative-y\":0.47410714285714284,\"relative-x2\":0.17597551644988524,\"relative-y2\":0.47410714285714284,\"elapse-time\":4013.6250001378357},{\"relative-x\":0.09257842387146137,\"relative-y\":0.4642857142857143,\"relative-x2\":0.09257842387146137,\"relative-y2\":0.4642857142857143,\"elapse-time\":4091.8300000485033},{\"relative-x\":0.15990818668706963,\"relative-y\":0.5098214285714285,\"relative-x2\":0.15990818668706963,\"relative-y2\":0.5098214285714285,\"elapse-time\":4170.115000102669},{\"relative-x\":0.2723794950267789,\"relative-y\":0.5303571428571429,\"relative-x2\":0.2723794950267789,\"relative-y2\":0.5303571428571429,\"elapse-time\":4251.670000143349},{\"relative-x\":0.0811017597551645,\"relative-y\":0.40089285714285716,\"relative-x2\":0.0811017597551645,\"relative-y2\":0.40089285714285716,\"elapse-time\":4332.309999968857},{\"relative-x\":0.4506503442999235,\"relative-y\":0.7678571428571429,\"relative-x2\":0.4506503442999235,\"relative-y2\":0.7678571428571429,\"elapse-time\":4412.569999927655},{\"relative-x\":0.4575363427697016,\"relative-y\":0.8125,\"relative-x2\":0.4575363427697016,\"relative-y2\":0.8125,\"elapse-time\":4491.420000093058},{\"relative-x\":0.6465187452180566,\"relative-y\":0.9866071428571429,\"relative-x2\":0.6465187452180566,\"relative-y2\":0.9866071428571429,\"elapse-time\":4569.554999936372},{\"relative-x\":0.5516449885233359,\"relative-y\":0.7205357142857143,\"relative-x2\":0.5516449885233359,\"relative-y2\":0.7205357142857143,\"elapse-time\":4656.480000121519},{\"relative-x\":0.43152257077276207,\"relative-y\":0.80625,\"relative-x2\":0.43152257077276207,\"relative-y2\":0.80625,\"elapse-time\":4731.045000022277},{\"relative-x\":0.26243305279265494,\"relative-y\":0.5008928571428571,\"relative-x2\":0.26243305279265494,\"relative-y2\":0.5008928571428571,\"elapse-time\":4810.930000152439},{\"relative-x\":0.18362662586074982,\"relative-y\":0.46785714285714286,\"relative-x2\":0.18362662586074982,\"relative-y2\":0.46785714285714286,\"elapse-time\":4889.750000089407},{\"relative-x\":0.2723794950267789,\"relative-y\":0.47232142857142856,\"relative-x2\":0.2723794950267789,\"relative-y2\":0.47232142857142856,\"elapse-time\":4970.089999958873},{\"relative-x\":0.2593726090283091,\"relative-y\":0.5205357142857143,\"relative-x2\":0.2593726090283091,\"relative-y2\":0.5205357142857143,\"elapse-time\":5055.115000111982},{\"relative-x\":0.2394797245600612,\"relative-y\":0.5285714285714286,\"relative-x2\":0.2394797245600612,\"relative-y2\":0.5285714285714286,\"elapse-time\":5131.960000144318},{\"relative-x\":0.19204284621270085,\"relative-y\":0.45535714285714285,\"relative-x2\":0.19204284621270085,\"relative-y2\":0.45535714285714285,\"elapse-time\":5212.52500009723},{\"relative-x\":0.6434583014537107,\"relative-y\":0.36339285714285713,\"relative-x2\":0.6434583014537107,\"relative-y2\":0.36339285714285713,\"elapse-time\":5290.8350001089275}]}","realtrial":false,"trial_type":"binary-choice","trial_index":63,"time_elapsed":190395,"internal_node_id":"0.0-11.0-1.0","browser_name":"Chrome","browser_type":"85.0","subject":"e2tp9d4","interaction":"[]","windowWidth":1307,"windowHight":1120},{"rt":null,"stimulus":"<span id=\"calibration_dot_instruction\"></span>","key_press":null,"trial_type":"html-keyboard-response","trial_index":64,"time_elapsed":190896,"internal_node_id":"0.0-11.1-0.1","browser_name":"Chrome","browser_type":"85.0","subject":"e2tp9d4","interaction":"[]","windowWidth":1307,"windowHight":1120},{"stimulus":["../img/pracImg/foodprac_2.jpg","../img/pracImg/foodprac_1.jpg"],"left_stimulus":"../img/pracImg/foodprac_2.jpg","right_stimulus":"../img/pracImg/foodprac_1.jpg","rt":733.619999838993,"key_press":74,"choices":["F","J"],"eyeData":"{\"history\":[{\"relative-x\":0.6732976281560826,\"relative-y\":0.9,\"relative-x2\":0.6732976281560826,\"relative-y2\":0.9,\"elapse-time\":91.25000005587935},{\"relative-x\":0.37413925019127775,\"relative-y\":0.775,\"relative-x2\":0.37413925019127775,\"relative-y2\":0.775,\"elapse-time\":173.9600000437349},{\"relative-x\":0.45983167559296095,\"relative-y\":0.39107142857142857,\"relative-x2\":0.45983167559296095,\"relative-y2\":0.39107142857142857,\"elapse-time\":251.21999997645617},{\"relative-x\":0.3228768171384851,\"relative-y\":0.41517857142857145,\"relative-x2\":0.3228768171384851,\"relative-y2\":0.41517857142857145,\"elapse-time\":330.70999989286065},{\"relative-x\":0.4162203519510329,\"relative-y\":0.3776785714285714,\"relative-x2\":0.4162203519510329,\"relative-y2\":0.3776785714285714,\"elapse-time\":413.44500007107854},{\"relative-x\":0.8538638102524866,\"relative-y\":0.4973214285714286,\"relative-x2\":0.8538638102524866,\"relative-y2\":0.4973214285714286,\"elapse-time\":491.7200000490993},{\"relative-x\":0.791124713083397,\"relative-y\":0.5267857142857143,\"relative-x2\":0.791124713083397,\"relative-y2\":0.5267857142857143,\"elapse-time\":573.7699999008328},{\"relative-x\":0.872991583779648,\"relative-y\":0.5294642857142857,\"relative-x2\":0.872991583779648,\"relative-y2\":0.5294642857142857,\"elapse-time\":651.7999998759478},{\"relative-x\":0.811017597551645,\"relative-y\":0.39107142857142857,\"relative-x2\":0.811017597551645,\"relative-y2\":0.39107142857142857,\"elapse-time\":732.0349998772144},{\"relative-x\":0.7482785003825555,\"relative-y\":0.35,\"relative-x2\":0.7482785003825555,\"relative-y2\":0.35,\"elapse-time\":813.605000032112},{\"relative-x\":0.75592960979342,\"relative-y\":0.35446428571428573,\"relative-x2\":0.75592960979342,\"relative-y2\":0.35446428571428573,\"elapse-time\":889.214999973774},{\"relative-x\":0.8217291507268554,\"relative-y\":0.3625,\"relative-x2\":0.8217291507268554,\"relative-y2\":0.3625,\"elapse-time\":969.3249999545515},{\"relative-x\":0.8041315990818668,\"relative-y\":0.3196428571428571,\"relative-x2\":0.8041315990818668,\"relative-y2\":0.3196428571428571,\"elapse-time\":1047.749999910593},{\"relative-x\":0.7857689364957919,\"relative-y\":0.39375,\"relative-x2\":0.7857689364957919,\"relative-y2\":0.39375,\"elapse-time\":1129.8149998765439},{\"relative-x\":0.23794950267788828,\"relative-y\":0.41696428571428573,\"relative-x2\":0.23794950267788828,\"relative-y2\":0.41696428571428573,\"elapse-time\":1213.5449999477714}]}","realtrial":false,"trial_type":"binary-choice","trial_index":65,"time_elapsed":192131,"internal_node_id":"0.0-11.1-1.1","browser_name":"Chrome","browser_type":"85.0","subject":"e2tp9d4","interaction":"[]","windowWidth":1307,"windowHight":1120},{"rt":null,"stimulus":"<span id=\"calibration_dot_instruction\"></span>","key_press":null,"trial_type":"html-keyboard-response","trial_index":66,"time_elapsed":192633,"internal_node_id":"0.0-11.2-0.2","browser_name":"Chrome","browser_type":"85.0","subject":"e2tp9d4","interaction":"[]","windowWidth":1307,"windowHight":1120},{"stimulus":["../img/pracImg/foodprac_3.jpg","../img/pracImg/foodprac_2.jpg"],"left_stimulus":"../img/pracImg/foodprac_3.jpg","right_stimulus":"../img/pracImg/foodprac_2.jpg","rt":764.9449999444187,"key_press":70,"choices":["F","J"],"eyeData":"{\"history\":[{\"relative-x\":0.46977811782708495,\"relative-y\":0.3205357142857143,\"relative-x2\":0.46977811782708495,\"relative-y2\":0.3205357142857143,\"elapse-time\":89.30500014685094},{\"relative-x\":0.5072685539403213,\"relative-y\":0.3464285714285714,\"relative-x2\":0.5072685539403213,\"relative-y2\":0.3464285714285714,\"elapse-time\":172.7549999486655},{\"relative-x\":0.5187452180566182,\"relative-y\":0.3053571428571429,\"relative-x2\":0.5187452180566182,\"relative-y2\":0.3053571428571429,\"elapse-time\":249.75499999709427},{\"relative-x\":0.4904361132364193,\"relative-y\":0.4232142857142857,\"relative-x2\":0.4904361132364193,\"relative-y2\":0.4232142857142857,\"elapse-time\":332.68500003032386},{\"relative-x\":0.2662586074980872,\"relative-y\":0.4616071428571429,\"relative-x2\":0.2662586074980872,\"relative-y2\":0.4616071428571429,\"elapse-time\":410.96000000834465},{\"relative-x\":0.25325172149961744,\"relative-y\":0.4660714285714286,\"relative-x2\":0.25325172149961744,\"relative-y2\":0.4660714285714286,\"elapse-time\":491.0999999847263},{\"relative-x\":0.25325172149961744,\"relative-y\":0.4276785714285714,\"relative-x2\":0.25325172149961744,\"relative-y2\":0.4276785714285714,\"elapse-time\":576.9299999810755},{\"relative-x\":0.19510328997704668,\"relative-y\":0.35535714285714287,\"relative-x2\":0.19510328997704668,\"relative-y2\":0.35535714285714287,\"elapse-time\":650.1100000459701},{\"relative-x\":0.2823259372609028,\"relative-y\":0.4017857142857143,\"relative-x2\":0.2823259372609028,\"relative-y2\":0.4017857142857143,\"elapse-time\":733.4549999795854},{\"relative-x\":0.20428462127008415,\"relative-y\":0.39107142857142857,\"relative-x2\":0.20428462127008415,\"relative-y2\":0.39107142857142857,\"elapse-time\":817.6949999760836},{\"relative-x\":0.33588370313695487,\"relative-y\":0.40089285714285716,\"relative-x2\":0.33588370313695487,\"relative-y2\":0.40089285714285716,\"elapse-time\":891.9850001111627},{\"relative-x\":0.34889058913542464,\"relative-y\":0.4125,\"relative-x2\":0.34889058913542464,\"relative-y2\":0.4125,\"elapse-time\":976.1799999978393},{\"relative-x\":0.25784238714613616,\"relative-y\":0.48660714285714285,\"relative-x2\":0.25784238714613616,\"relative-y2\":0.48660714285714285,\"elapse-time\":1050.6299999542534},{\"relative-x\":0.2433052792654935,\"relative-y\":0.33214285714285713,\"relative-x2\":0.2433052792654935,\"relative-y2\":0.33214285714285713,\"elapse-time\":1134.1150000225753},{\"relative-x\":0.3182861514919663,\"relative-y\":0.48839285714285713,\"relative-x2\":0.3182861514919663,\"relative-y2\":0.48839285714285713,\"elapse-time\":1210.3949999436736}]}","realtrial":false,"trial_type":"binary-choice","trial_index":67,"time_elapsed":193900,"internal_node_id":"0.0-11.2-1.2","browser_name":"Chrome","browser_type":"85.0","subject":"e2tp9d4","interaction":"[]","windowWidth":1307,"windowHight":1120},{"rt":1002.5900001637638,"stimulus":"<div> Now you can move on to the real choices. When you are ready, press the <b>SPACE BAR</b> to begin.</div>","key_press":32,"trial_type":"html-keyboard-response","trial_index":68,"time_elapsed":194903,"internal_node_id":"0.0-12.0","browser_name":"Chrome","browser_type":"85.0","subject":"e2tp9d4","interaction":"[]","windowWidth":1307,"windowHight":1120},{"validationPoints":"[{\"x\":\"35%\",\"y\":\"35%\",\"valid\":true,\"hitRatio\":0.9918032786885246},{\"x\":\"80%\",\"y\":\"80%\",\"valid\":true,\"hitRatio\":0.9145299145299145},{\"x\":\"50%\",\"y\":\"50%\",\"valid\":true,\"hitRatio\":0.9758064516129032}]","accuracy":1,"trial_type":"eye-tracking","trial_index":69,"time_elapsed":205429,"internal_node_id":"0.0-13.0-0.0-0.0","browser_name":"Chrome","browser_type":"85.0","subject":"e2tp9d4","interaction":"[]","windowWidth":1307,"windowHight":1120},{"stimulus":["../img/FoodImages/foodStimulus_9.jpg","../img/FoodImages/foodStimulus_27.jpg"],"left_stimulus":"../img/FoodImages/foodStimulus_9.jpg","right_stimulus":"../img/FoodImages/foodStimulus_27.jpg","rt":1818.6649999115616,"key_press":74,"choices":["F","J"],"eyeData":"{\"history\":[{\"relative-x\":0.5011476664116297,\"relative-y\":0.5035714285714286,\"relative-x2\":0.5011476664116297,\"relative-y2\":0.5035714285714286,\"elapse-time\":93.7650001142174},{\"relative-x\":0.5570007651109411,\"relative-y\":0.4642857142857143,\"relative-x2\":0.5570007651109411,\"relative-y2\":0.4642857142857143,\"elapse-time\":173.01000002771616},{\"relative-x\":0.4162203519510329,\"relative-y\":0.39553571428571427,\"relative-x2\":0.4162203519510329,\"relative-y2\":0.39553571428571427,\"elapse-time\":252.24000005982816},{\"relative-x\":0.550114766641163,\"relative-y\":0.4625,\"relative-x2\":0.550114766641163,\"relative-y2\":0.4625,\"elapse-time\":333.8349999394268},{\"relative-x\":0.8393267023718439,\"relative-y\":0.35267857142857145,\"relative-x2\":0.8393267023718439,\"relative-y2\":0.35267857142857145,\"elapse-time\":411.725000012666},{\"relative-x\":0.7475133894414691,\"relative-y\":0.33482142857142855,\"relative-x2\":0.7475133894414691,\"relative-y2\":0.33482142857142855,\"elapse-time\":493.1900000665337},{\"relative-x\":0.7811782708492732,\"relative-y\":0.375,\"relative-x2\":0.7811782708492732,\"relative-y2\":0.375,\"elapse-time\":572.7949999272823},{\"relative-x\":0.712318286151492,\"relative-y\":0.37142857142857144,\"relative-x2\":0.712318286151492,\"relative-y2\":0.37142857142857144,\"elapse-time\":650.8800000883639},{\"relative-x\":0.19127773527161437,\"relative-y\":0.3919642857142857,\"relative-x2\":0.19127773527161437,\"relative-y2\":0.3919642857142857,\"elapse-time\":733.4449999034405},{\"relative-x\":0.21499617444529456,\"relative-y\":0.4589285714285714,\"relative-x2\":0.21499617444529456,\"relative-y2\":0.4589285714285714,\"elapse-time\":810.9649999532849},{\"relative-x\":0.17980107115531752,\"relative-y\":0.37857142857142856,\"relative-x2\":0.17980107115531752,\"relative-y2\":0.37857142857142856,\"elapse-time\":891.7650000657886},{\"relative-x\":0.20275439938791126,\"relative-y\":0.3732142857142857,\"relative-x2\":0.20275439938791126,\"relative-y2\":0.3732142857142857,\"elapse-time\":971.4349999558181},{\"relative-x\":0.061208875286916604,\"relative-y\":0.3517857142857143,\"relative-x2\":0.061208875286916604,\"relative-y2\":0.3517857142857143,\"elapse-time\":1050.3450001124293},{\"relative-x\":0.1331293037490436,\"relative-y\":0.35535714285714287,\"relative-x2\":0.1331293037490436,\"relative-y2\":0.35535714285714287,\"elapse-time\":1133.780000032857},{\"relative-x\":0.6013771996939556,\"relative-y\":0.3964285714285714,\"relative-x2\":0.6013771996939556,\"relative-y2\":0.3964285714285714,\"elapse-time\":1211.3600000739098},{\"relative-x\":0.8018362662586075,\"relative-y\":0.39107142857142857,\"relative-x2\":0.8018362662586075,\"relative-y2\":0.39107142857142857,\"elapse-time\":1290.9399999771267},{\"relative-x\":0.7566947207345065,\"relative-y\":0.3776785714285714,\"relative-x2\":0.7566947207345065,\"relative-y2\":0.3776785714285714,\"elapse-time\":1372.7800000924617},{\"relative-x\":0.8316755929609794,\"relative-y\":0.3607142857142857,\"relative-x2\":0.8316755929609794,\"relative-y2\":0.3607142857142857,\"elapse-time\":1449.4749999139458},{\"relative-x\":0.8079571537872992,\"relative-y\":0.26964285714285713,\"relative-x2\":0.8079571537872992,\"relative-y2\":0.26964285714285713,\"elapse-time\":1534.6649999264628},{\"relative-x\":0.7230298393267024,\"relative-y\":0.35,\"relative-x2\":0.7230298393267024,\"relative-y2\":0.35,\"elapse-time\":1611.144999973476},{\"relative-x\":0.8033664881407804,\"relative-y\":0.3205357142857143,\"relative-x2\":0.8033664881407804,\"relative-y2\":0.3205357142857143,\"elapse-time\":1691.5349999908358},{\"relative-x\":0.8898240244835501,\"relative-y\":0.38660714285714287,\"relative-x2\":0.8898240244835501,\"relative-y2\":0.38660714285714287,\"elapse-time\":1772.4099999759346},{\"relative-x\":0.9801071155317521,\"relative-y\":0.39553571428571427,\"relative-x2\":0.9801071155317521,\"relative-y2\":0.39553571428571427,\"elapse-time\":1862.0899999514222},{\"relative-x\":0.8048967100229534,\"relative-y\":0.34732142857142856,\"relative-x2\":0.8048967100229534,\"relative-y2\":0.34732142857142856,\"elapse-time\":1930.824999930337},{\"relative-x\":0.7016067329762815,\"relative-y\":0.36428571428571427,\"relative-x2\":0.7016067329762815,\"relative-y2\":0.36428571428571427,\"elapse-time\":2013.3499999064952},{\"relative-x\":0.8041315990818668,\"relative-y\":0.47767857142857145,\"relative-x2\":0.8041315990818668,\"relative-y2\":0.47767857142857145,\"elapse-time\":2092.9149999283254},{\"relative-x\":0.730680948737567,\"relative-y\":0.48392857142857143,\"relative-x2\":0.730680948737567,\"relative-y2\":0.48392857142857143,\"elapse-time\":2173.644999973476},{\"relative-x\":0.6472838561591431,\"relative-y\":0.37589285714285714,\"relative-x2\":0.6472838561591431,\"relative-y2\":0.37589285714285714,\"elapse-time\":2249.6599999722093}]}","realtrial":true,"trial_type":"binary-choice","trial_index":70,"time_elapsed":207755,"internal_node_id":"0.0-13.0-2.0","browser_name":"Chrome","browser_type":"85.0","subject":"e2tp9d4","interaction":"[]","windowWidth":1307,"windowHight":1120},{"rt":null,"stimulus":"<span id=\"calibration_dot_instruction\"></span>","key_press":null,"trial_type":"html-keyboard-response","trial_index":71,"time_elapsed":208257,"internal_node_id":"0.0-13.1-1.1-0.1","browser_name":"Chrome","browser_type":"85.0","subject":"e2tp9d4","interaction":"[]","windowWidth":1307,"windowHight":1120},{"stimulus":["../img/FoodImages/foodStimulus_3.jpg","../img/FoodImages/foodStimulus_28.jpg"],"left_stimulus":"../img/FoodImages/foodStimulus_3.jpg","right_stimulus":"../img/FoodImages/foodStimulus_28.jpg","rt":1757.3450000490993,"key_press":74,"choices":["F","J"],"eyeData":"{\"history\":[{\"relative-x\":0.5110941086457537,\"relative-y\":0.44821428571428573,\"relative-x2\":0.5110941086457537,\"relative-y2\":0.44821428571428573,\"elapse-time\":90.06000007502735},{\"relative-x\":0.45983167559296095,\"relative-y\":0.47232142857142856,\"relative-x2\":0.45983167559296095,\"relative-y2\":0.47232142857142856,\"elapse-time\":174.60000002756715},{\"relative-x\":0.40091813312930374,\"relative-y\":0.43392857142857144,\"relative-x2\":0.40091813312930374,\"relative-y2\":0.43392857142857144,\"elapse-time\":250.69500016979873},{\"relative-x\":0.4628921193573068,\"relative-y\":0.4107142857142857,\"relative-x2\":0.4628921193573068,\"relative-y2\":0.4107142857142857,\"elapse-time\":334.13000009022653},{\"relative-x\":0.24407039020657995,\"relative-y\":0.4089285714285714,\"relative-x2\":0.24407039020657995,\"relative-y2\":0.4089285714285714,\"elapse-time\":412.75999997742474},{\"relative-x\":0.21423106350420812,\"relative-y\":0.37142857142857144,\"relative-x2\":0.21423106350420812,\"relative-y2\":0.37142857142857144,\"elapse-time\":490.2350001502782},{\"relative-x\":0.20657995409334354,\"relative-y\":0.3892857142857143,\"relative-x2\":0.20657995409334354,\"relative-y2\":0.3892857142857143,\"elapse-time\":575.3900001291186},{\"relative-x\":0.16449885233358838,\"relative-y\":0.39017857142857143,\"relative-x2\":0.16449885233358838,\"relative-y2\":0.39017857142857143,\"elapse-time\":651.5800000634044},{\"relative-x\":0.2593726090283091,\"relative-y\":0.41875,\"relative-x2\":0.2593726090283091,\"relative-y2\":0.41875,\"elapse-time\":732.9349999781698},{\"relative-x\":0.2616679418515685,\"relative-y\":0.40267857142857144,\"relative-x2\":0.2616679418515685,\"relative-y2\":0.40267857142857144,\"elapse-time\":812.110000057146},{\"relative-x\":0.24483550114766642,\"relative-y\":0.4232142857142857,\"relative-x2\":0.24483550114766642,\"relative-y2\":0.4232142857142857,\"elapse-time\":890.5899999663234},{\"relative-x\":0.18439173680183626,\"relative-y\":0.45089285714285715,\"relative-x2\":0.18439173680183626,\"relative-y2\":0.45089285714285715,\"elapse-time\":974.3800000287592},{\"relative-x\":0.2616679418515685,\"relative-y\":0.4,\"relative-x2\":0.2616679418515685,\"relative-y2\":0.4,\"elapse-time\":1052.305000135675},{\"relative-x\":0.7605202754399388,\"relative-y\":0.8598214285714286,\"relative-x2\":0.7605202754399388,\"relative-y2\":0.8598214285714286,\"elapse-time\":1131.935000186786},{\"relative-x\":0.9808722264728386,\"relative-y\":0.5866071428571429,\"relative-x2\":0.9808722264728386,\"relative-y2\":0.5866071428571429,\"elapse-time\":1212.44000014849},{\"relative-x\":0.9265493496557001,\"relative-y\":0.2910714285714286,\"relative-x2\":0.9265493496557001,\"relative-y2\":0.2910714285714286,\"elapse-time\":1289.115000050515},{\"relative-x\":0.827850038255547,\"relative-y\":0.3107142857142857,\"relative-x2\":0.827850038255547,\"relative-y2\":0.3107142857142857,\"elapse-time\":1373.725000070408},{\"relative-x\":0.6970160673297628,\"relative-y\":0.3196428571428571,\"relative-x2\":0.6970160673297628,\"relative-y2\":0.3196428571428571,\"elapse-time\":1449.945000000298},{\"relative-x\":0.7475133894414691,\"relative-y\":0.31607142857142856,\"relative-x2\":0.7475133894414691,\"relative-y2\":0.31607142857142856,\"elapse-time\":1532.3000000789762},{\"relative-x\":0.8370313695485846,\"relative-y\":0.32321428571428573,\"relative-x2\":0.8370313695485846,\"relative-y2\":0.32321428571428573,\"elapse-time\":1613.9800001401454},{\"relative-x\":0.7666411629686305,\"relative-y\":0.3125,\"relative-x2\":0.7666411629686305,\"relative-y2\":0.3125,\"elapse-time\":1692.100000102073},{\"relative-x\":0.5340474368783473,\"relative-y\":0.4303571428571429,\"relative-x2\":0.5340474368783473,\"relative-y2\":0.4303571428571429,\"elapse-time\":1776.7750001512468},{\"relative-x\":0.24254016832440703,\"relative-y\":0.48035714285714287,\"relative-x2\":0.24254016832440703,\"relative-y2\":0.48035714285714287,\"elapse-time\":1852.540000109002},{\"relative-x\":0.1874521805661821,\"relative-y\":0.43660714285714286,\"relative-x2\":0.1874521805661821,\"relative-y2\":0.43660714285714286,\"elapse-time\":1930.4600001778454},{\"relative-x\":0.9196633511859219,\"relative-y\":0.5571428571428572,\"relative-x2\":0.9196633511859219,\"relative-y2\":0.5571428571428572,\"elapse-time\":2013.1000000983477},{\"relative-x\":0.8515684774292273,\"relative-y\":0.3455357142857143,\"relative-x2\":0.8515684774292273,\"relative-y2\":0.3455357142857143,\"elapse-time\":2091.3200001232326},{\"relative-x\":0.7345065034429993,\"relative-y\":0.39107142857142857,\"relative-x2\":0.7345065034429993,\"relative-y2\":0.39107142857142857,\"elapse-time\":2175.1850000582635},{\"relative-x\":0.7543993879112472,\"relative-y\":0.3678571428571429,\"relative-x2\":0.7543993879112472,\"relative-y2\":0.3678571428571429,\"elapse-time\":2251.325000077486}]}","realtrial":true,"trial_type":"binary-choice","trial_index":72,"time_elapsed":210515,"internal_node_id":"0.0-13.1-2.1","browser_name":"Chrome","browser_type":"85.0","subject":"e2tp9d4","interaction":"[]","windowWidth":1307,"windowHight":1120},{"rt":null,"stimulus":"<span id=\"calibration_dot_instruction\"></span>","key_press":null,"trial_type":"html-keyboard-response","trial_index":73,"time_elapsed":211016,"internal_node_id":"0.0-13.2-1.2-0.2","browser_name":"Chrome","browser_type":"85.0","subject":"e2tp9d4","interaction":"[]","windowWidth":1307,"windowHight":1120},{"stimulus":["../img/FoodImages/foodStimulus_11.jpg","../img/FoodImages/foodStimulus_6.jpg"],"left_stimulus":"../img/FoodImages/foodStimulus_11.jpg","right_stimulus":"../img/FoodImages/foodStimulus_6.jpg","rt":892.4200001638383,"key_press":70,"choices":["F","J"],"eyeData":"{\"history\":[{\"relative-x\":0.5470543228768171,\"relative-y\":0.40535714285714286,\"relative-x2\":0.5470543228768171,\"relative-y2\":0.40535714285714286,\"elapse-time\":89.864999987185},{\"relative-x\":0.5294567712318287,\"relative-y\":0.38571428571428573,\"relative-x2\":0.5294567712318287,\"relative-y2\":0.38571428571428573,\"elapse-time\":172.88500000722706},{\"relative-x\":0.5348125478194338,\"relative-y\":0.40625,\"relative-x2\":0.5348125478194338,\"relative-y2\":0.40625,\"elapse-time\":250.32999995164573},{\"relative-x\":0.06732976281560826,\"relative-y\":0.31160714285714286,\"relative-x2\":0.06732976281560826,\"relative-y2\":0.31160714285714286,\"elapse-time\":330.1450000144541},{\"relative-x\":0.18515684774292274,\"relative-y\":0.3705357142857143,\"relative-x2\":0.18515684774292274,\"relative-y2\":0.3705357142857143,\"elapse-time\":411.5400000009686},{\"relative-x\":0.1063504208110176,\"relative-y\":0.43214285714285716,\"relative-x2\":0.1063504208110176,\"relative-y2\":0.43214285714285716,\"elapse-time\":491.65500001981854},{\"relative-x\":0.2249426166794185,\"relative-y\":0.4232142857142857,\"relative-x2\":0.2249426166794185,\"relative-y2\":0.4232142857142857,\"elapse-time\":569.7250000666827},{\"relative-x\":0.6449885233358837,\"relative-y\":0.4125,\"relative-x2\":0.6449885233358837,\"relative-y2\":0.4125,\"elapse-time\":650.9599999990314},{\"relative-x\":0.7781178270849273,\"relative-y\":0.42410714285714285,\"relative-x2\":0.7781178270849273,\"relative-y2\":0.42410714285714285,\"elapse-time\":730.0700000487268},{\"relative-x\":0.7031369548584545,\"relative-y\":0.3848214285714286,\"relative-x2\":0.7031369548584545,\"relative-y2\":0.3848214285714286,\"elapse-time\":813.3300000336021},{\"relative-x\":0.836266258607498,\"relative-y\":0.35892857142857143,\"relative-x2\":0.836266258607498,\"relative-y2\":0.35892857142857143,\"elapse-time\":891.0349998623133},{\"relative-x\":0.568477429227238,\"relative-y\":0.35267857142857145,\"relative-x2\":0.568477429227238,\"relative-y2\":0.35267857142857145,\"elapse-time\":973.6249998677522},{\"relative-x\":0.3136954858454476,\"relative-y\":0.4017857142857143,\"relative-x2\":0.3136954858454476,\"relative-y2\":0.4017857142857143,\"elapse-time\":1050.004999851808},{\"relative-x\":0.28538638102524866,\"relative-y\":0.41160714285714284,\"relative-x2\":0.28538638102524866,\"relative-y2\":0.41160714285714284,\"elapse-time\":1131.8299998529255},{\"relative-x\":0.2325937260902831,\"relative-y\":0.47232142857142856,\"relative-x2\":0.2325937260902831,\"relative-y2\":0.47232142857142856,\"elapse-time\":1212.6700000371784},{\"relative-x\":0.2501912777352716,\"relative-y\":0.42589285714285713,\"relative-x2\":0.2501912777352716,\"relative-y2\":0.42589285714285713,\"elapse-time\":1291.410000063479},{\"relative-x\":0.22647283856159142,\"relative-y\":0.4419642857142857,\"relative-x2\":0.22647283856159142,\"relative-y2\":0.4419642857142857,\"elapse-time\":1373.5400000587106}]}","realtrial":true,"trial_type":"binary-choice","trial_index":74,"time_elapsed":212411,"internal_node_id":"0.0-13.2-2.2","browser_name":"Chrome","browser_type":"85.0","subject":"e2tp9d4","interaction":"[]","windowWidth":1307,"windowHight":1120},{"rt":null,"stimulus":"<span id=\"calibration_dot_instruction\"></span>","key_press":null,"trial_type":"html-keyboard-response","trial_index":75,"time_elapsed":212912,"internal_node_id":"0.0-13.3-1.3-0.3","browser_name":"Chrome","browser_type":"85.0","subject":"e2tp9d4","interaction":"[]","windowWidth":1307,"windowHight":1120},{"stimulus":["../img/FoodImages/foodStimulus_9.jpg","../img/FoodImages/foodStimulus_6.jpg"],"left_stimulus":"../img/FoodImages/foodStimulus_9.jpg","right_stimulus":"../img/FoodImages/foodStimulus_6.jpg","rt":1224.964999826625,"key_press":74,"choices":["F","J"],"eyeData":"{\"history\":[{\"relative-x\":0.45141545524100996,\"relative-y\":0.41160714285714284,\"relative-x2\":0.45141545524100996,\"relative-y2\":0.41160714285714284,\"elapse-time\":91.32500016130507},{\"relative-x\":0.5623565416985463,\"relative-y\":0.37589285714285714,\"relative-x2\":0.5623565416985463,\"relative-y2\":0.37589285714285714,\"elapse-time\":170.86499999277294},{\"relative-x\":0.4743687834736037,\"relative-y\":0.4044642857142857,\"relative-x2\":0.4743687834736037,\"relative-y2\":0.4044642857142857,\"elapse-time\":253.9850000757724},{\"relative-x\":0.4468247895944912,\"relative-y\":0.43214285714285716,\"relative-x2\":0.4468247895944912,\"relative-y2\":0.43214285714285716,\"elapse-time\":331.4200001768768},{\"relative-x\":0.8859984697781178,\"relative-y\":0.40089285714285716,\"relative-x2\":0.8859984697781178,\"relative-y2\":0.40089285714285716,\"elapse-time\":413.38000004179776},{\"relative-x\":0.7758224942616679,\"relative-y\":0.3535714285714286,\"relative-x2\":0.7758224942616679,\"relative-y2\":0.3535714285714286,\"elapse-time\":493.05000016465783},{\"relative-x\":0.7299158377964805,\"relative-y\":0.35446428571428573,\"relative-x2\":0.7299158377964805,\"relative-y2\":0.35446428571428573,\"elapse-time\":569.7600001003593},{\"relative-x\":0.6817138485080336,\"relative-y\":0.37142857142857144,\"relative-x2\":0.6817138485080336,\"relative-y2\":0.37142857142857144,\"elapse-time\":655.4650000762194},{\"relative-x\":0.3634276970160673,\"relative-y\":0.39107142857142857,\"relative-x2\":0.3634276970160673,\"relative-y2\":0.39107142857142857,\"elapse-time\":733.1700001377612},{\"relative-x\":0.14613618974751338,\"relative-y\":0.4142857142857143,\"relative-x2\":0.14613618974751338,\"relative-y2\":0.4142857142857143,\"elapse-time\":812.6499999780208},{\"relative-x\":0.18362662586074982,\"relative-y\":0.3830357142857143,\"relative-x2\":0.18362662586074982,\"relative-y2\":0.3830357142857143,\"elapse-time\":890.8800000790507},{\"relative-x\":0.05279265493496557,\"relative-y\":0.3357142857142857,\"relative-x2\":0.05279265493496557,\"relative-y2\":0.3357142857142857,\"elapse-time\":970.5350000876933},{\"relative-x\":0.7574598316755929,\"relative-y\":0.5473214285714286,\"relative-x2\":0.7574598316755929,\"relative-y2\":0.5473214285714286,\"elapse-time\":1054.2099999729544},{\"relative-x\":0.7857689364957919,\"relative-y\":0.65,\"relative-x2\":0.7857689364957919,\"relative-y2\":0.65,\"elapse-time\":1132.5350000988692},{\"relative-x\":0.8293802601377199,\"relative-y\":0.5392857142857143,\"relative-x2\":0.8293802601377199,\"relative-y2\":0.5392857142857143,\"elapse-time\":1212.495000101626},{\"relative-x\":0.7651109410864575,\"relative-y\":0.42857142857142855,\"relative-x2\":0.7651109410864575,\"relative-y2\":0.42857142857142855,\"elapse-time\":1291.4299999829382},{\"relative-x\":0.8385615914307575,\"relative-y\":0.33303571428571427,\"relative-x2\":0.8385615914307575,\"relative-y2\":0.33303571428571427,\"elapse-time\":1369.2050001118332},{\"relative-x\":0.8102524866105585,\"relative-y\":0.42142857142857143,\"relative-x2\":0.8102524866105585,\"relative-y2\":0.42142857142857143,\"elapse-time\":1454.135000007227},{\"relative-x\":0.8064269319051263,\"relative-y\":0.3357142857142857,\"relative-x2\":0.8064269319051263,\"relative-y2\":0.3357142857142857,\"elapse-time\":1532.4850000906736},{\"relative-x\":0.9020657995409335,\"relative-y\":0.3508928571428571,\"relative-x2\":0.9020657995409335,\"relative-y2\":0.3508928571428571,\"elapse-time\":1612.8450001124293},{\"relative-x\":0.8102524866105585,\"relative-y\":0.39464285714285713,\"relative-x2\":0.8102524866105585,\"relative-y2\":0.39464285714285713,\"elapse-time\":1690.7800000626594}]}","realtrial":true,"trial_type":"binary-choice","trial_index":76,"time_elapsed":214640,"internal_node_id":"0.0-13.3-2.3","browser_name":"Chrome","browser_type":"85.0","subject":"e2tp9d4","interaction":"[]","windowWidth":1307,"windowHight":1120},{"rt":null,"stimulus":"<span id=\"calibration_dot_instruction\"></span>","key_press":null,"trial_type":"html-keyboard-response","trial_index":77,"time_elapsed":215143,"internal_node_id":"0.0-13.4-1.4-0.4","browser_name":"Chrome","browser_type":"85.0","subject":"e2tp9d4","interaction":"[]","windowWidth":1307,"windowHight":1120},{"stimulus":["../img/FoodImages/foodStimulus_17.jpg","../img/FoodImages/foodStimulus_41.jpg"],"left_stimulus":"../img/FoodImages/foodStimulus_17.jpg","right_stimulus":"../img/FoodImages/foodStimulus_41.jpg","rt":1412.2100002132356,"key_press":74,"choices":["F","J"],"eyeData":"{\"history\":[{\"relative-x\":0.41928079571537874,\"relative-y\":0.3044642857142857,\"relative-x2\":0.41928079571537874,\"relative-y2\":0.3044642857142857,\"elapse-time\":91.17500018328428},{\"relative-x\":0.4881407804131599,\"relative-y\":0.3580357142857143,\"relative-x2\":0.4881407804131599,\"relative-y2\":0.3580357142857143,\"elapse-time\":170.05500011146069},{\"relative-x\":0.5248661055853099,\"relative-y\":0.4357142857142857,\"relative-x2\":0.5248661055853099,\"relative-y2\":0.4357142857142857,\"elapse-time\":252.31500016525388},{\"relative-x\":0.5348125478194338,\"relative-y\":0.38571428571428573,\"relative-x2\":0.5348125478194338,\"relative-y2\":0.38571428571428573,\"elapse-time\":331.0450001154095},{\"relative-x\":0.3749043611323642,\"relative-y\":0.45803571428571427,\"relative-x2\":0.3749043611323642,\"relative-y2\":0.45803571428571427,\"elapse-time\":412.4500001780689},{\"relative-x\":0.25325172149961744,\"relative-y\":0.41785714285714287,\"relative-x2\":0.25325172149961744,\"relative-y2\":0.41785714285714287,\"elapse-time\":490.72500015608966},{\"relative-x\":0.27850038255547055,\"relative-y\":0.44642857142857145,\"relative-x2\":0.27850038255547055,\"relative-y2\":0.44642857142857145,\"elapse-time\":570.01500017941},{\"relative-x\":0.14307574598316755,\"relative-y\":0.33303571428571427,\"relative-x2\":0.14307574598316755,\"relative-y2\":0.33303571428571427,\"elapse-time\":653.6199999973178},{\"relative-x\":0.7934200459066565,\"relative-y\":0.42857142857142855,\"relative-x2\":0.7934200459066565,\"relative-y2\":0.42857142857142855,\"elapse-time\":730.5600000545382},{\"relative-x\":0.8263198163733741,\"relative-y\":0.31785714285714284,\"relative-x2\":0.8263198163733741,\"relative-y2\":0.31785714285714284,\"elapse-time\":811.4549999590963},{\"relative-x\":0.8316755929609794,\"relative-y\":0.3776785714285714,\"relative-x2\":0.8316755929609794,\"relative-y2\":0.3776785714285714,\"elapse-time\":891.0550000146031},{\"relative-x\":0.8332058148431523,\"relative-y\":0.3196428571428571,\"relative-x2\":0.8332058148431523,\"relative-y2\":0.3196428571428571,\"elapse-time\":970.5900000408292},{\"relative-x\":0.9326702371843917,\"relative-y\":0.3419642857142857,\"relative-x2\":0.9326702371843917,\"relative-y2\":0.3419642857142857,\"elapse-time\":1053.550000069663},{\"relative-x\":0.8760520275439939,\"relative-y\":0.34017857142857144,\"relative-x2\":0.8760520275439939,\"relative-y2\":0.34017857142857144,\"elapse-time\":1130.0550000742078},{\"relative-x\":0.7880642693190513,\"relative-y\":0.3125,\"relative-x2\":0.7880642693190513,\"relative-y2\":0.3125,\"elapse-time\":1211.2300000153482},{\"relative-x\":0.8408569242540168,\"relative-y\":0.3767857142857143,\"relative-x2\":0.8408569242540168,\"relative-y2\":0.3767857142857143,\"elapse-time\":1292.0600001234561},{\"relative-x\":0.8179035960214232,\"relative-y\":0.43392857142857144,\"relative-x2\":0.8179035960214232,\"relative-y2\":0.43392857142857144,\"elapse-time\":1370.0900000985712},{\"relative-x\":0.7758224942616679,\"relative-y\":0.4080357142857143,\"relative-x2\":0.7758224942616679,\"relative-y2\":0.4080357142857143,\"elapse-time\":1460.990000050515},{\"relative-x\":0.8622800306044377,\"relative-y\":0.38571428571428573,\"relative-x2\":0.8622800306044377,\"relative-y2\":0.38571428571428573,\"elapse-time\":1530.754999956116},{\"relative-x\":0.7964804896710023,\"relative-y\":0.31785714285714284,\"relative-x2\":0.7964804896710023,\"relative-y2\":0.31785714285714284,\"elapse-time\":1613.795000128448},{\"relative-x\":0.8439173680183627,\"relative-y\":0.37589285714285714,\"relative-x2\":0.8439173680183627,\"relative-y2\":0.37589285714285714,\"elapse-time\":1690.730000147596},{\"relative-x\":0.8071920428462127,\"relative-y\":0.3107142857142857,\"relative-x2\":0.8071920428462127,\"relative-y2\":0.3107142857142857,\"elapse-time\":1770.835000090301},{\"relative-x\":0.8454475899005356,\"relative-y\":0.44821428571428573,\"relative-x2\":0.8454475899005356,\"relative-y2\":0.44821428571428573,\"elapse-time\":1853.3850000239909}]}","realtrial":true,"trial_type":"binary-choice","trial_index":78,"time_elapsed":217058,"internal_node_id":"0.0-13.4-2.4","browser_name":"Chrome","browser_type":"85.0","subject":"e2tp9d4","interaction":"[]","windowWidth":1307,"windowHight":1120},{"validationPoints":"[{\"x\":\"35%\",\"y\":\"65%\",\"valid\":true,\"hitRatio\":0.8240740740740741},{\"x\":\"80%\",\"y\":\"50%\",\"valid\":true,\"hitRatio\":0.9911504424778761},{\"x\":\"50%\",\"y\":\"50%\",\"valid\":true,\"hitRatio\":0.8482142857142857}]","accuracy":1,"trial_type":"eye-tracking","trial_index":79,"time_elapsed":227077,"internal_node_id":"0.0-13.5-0.5-0.5","browser_name":"Chrome","browser_type":"85.0","subject":"e2tp9d4","interaction":"[]","windowWidth":1307,"windowHight":1120}]