[{"rt":3843.014999991283,"survey_responses":"{\"Q0\":\"sa\",\"Q1\":\"sa\",\"Q2\":\"sa\"}","trial_type":"survey-text","trial_index":0,"time_elapsed":3847,"internal_node_id":"0.0-0.0","browser_name":"Chrome","browser_type":"85.0","subject":"e2tp9d4","interaction":"[{\"event\":\"fullscreenenter\",\"trial\":1,\"time\":4539}]","windowWidth":1307,"windowHight":1120},{"success":true,"trial_type":"fullscreen","trial_index":1,"time_elapsed":5507,"internal_node_id":"0.0-1.0","browser_name":"Chrome","browser_type":"85.0","subject":"e2tp9d4","interaction":"[{\"event\":\"fullscreenenter\",\"trial\":1,\"time\":4539}]","windowWidth":1307,"windowHight":1120},{"rt":184.91999991238117,"stimulus":"<div> <font size=120%; font color = 'green';>Calibration & Validation </font><br/>\n                                             <br><br/>\n                Before we begin with the study, we need to turn on and adjust your webcam for eye-tracking.   <br/>\n                \n                There are two parts to this process. The first part is calibration and the second part is validation.<br/>\n                <br><br/>\n                During calibration, you will see a series of dots like this <span id=\"calibration_dot_instruction\"></span> appear on the screen, each for 3 seconds.<br/>\n                Your task is simply to stare directly at each dot until it disappears.<br/>\n                Then, quickly move your eyes to the next dot and repeat.<br/>\n                <br><br/>\n                Validation is basically the same as calibration. You simply need to stare at each dot until it turns <b><font color='green'>green</font></b> and disappears.<br/>\n                During validation, the dot may turn <b><font color='yellow'>yellow</font></b>, indicating that you don’t seem to be staring directly at it.  <br/>\n                Try to keep this from happening! \n                <br><br/>\n                When you are ready, press the SPACE BAR to continue. </div>","key_press":32,"trial_type":"html-keyboard-response","trial_index":2,"time_elapsed":5694,"internal_node_id":"0.0-2.0","browser_name":"Chrome","browser_type":"85.0","subject":"e2tp9d4","interaction":"[{\"event\":\"fullscreenenter\",\"trial\":1,\"time\":4539}]","windowWidth":1307,"windowHight":1120},{"rt":356.3000001013279,"stimulus":"<div><font size=120%; font color = 'green';>Calibration & Validation </font><br/>\n                                                                          <br><br/>\n      When the calibration begins, you will see a video feed with your face at the top left corner of your screen like this:  <br/>\n        <br><br/>\n         <img height=\"220px\" width=\"270px\" src=\"../img/instruct0.png\"><br/>\n       <br><br/>\n                         Try to keep your entire face within the box. When your face is in a good position, the box will turn <b><font color='green'>green</font></b>. <br/>\n                         <font size=5px; font color = 'red';> <b>NOTE</b>: the video feed only appears during calibration.</font><br/>\n                         <br><br/>\n                         <font size=5px; >When you are ready, press the  <b>SPACE BAR</b> to continue.</font>\n              \n                         </div>","key_press":32,"trial_type":"html-keyboard-response","trial_index":3,"time_elapsed":6554,"internal_node_id":"0.0-3.0","browser_name":"Chrome","browser_type":"85.0","subject":"e2tp9d4","interaction":"[{\"event\":\"fullscreenenter\",\"trial\":1,\"time\":4539}]","windowWidth":1307,"windowHight":1120},{"rt":562.9299997817725,"stimulus":"<div><font size=120%; font color = 'green';> Calibration & Validation</font><br/>\n                                                                          <br><br/>\n             <font size = 5px font color = \"yellow\">There are several <b>IMPORTANT</b> tips that are useful for passing the calibration task:<br/></font>\n             <img height=\"200px\" width=\"1000px\" src=\"../img/instruct1.png\"><br/>\n             <br><br/>\n             <div style=\"text-align-last:left\">\n            In addition to the tips in the figure: <br/>\n            (1). Use your eyes to look around the screen and try to avoid moving your head. <br/>\n            (2). Try to keep lights in front of you rather than behind you so that the webcam can clearly see your face. Avoid sitting with a window behind you. <br/>\n            (3). After you have made these adjustments, check again that your face fits nicely within the box on the video feed and that the box is green. <br/></div>\n             <br><br/>\n             <font size=5px; font color = 'red';> <b>NOTE</b>:  <br/>\n            If you are back on this page, it means the calibration and validation did not work as well as we would like.  <br/>\n            Please read the tips above again, make any adjustments, and try again.  <br/>\n            There are only <b>THREE</b> chances to get this right.  <br/>\n            Otherwise, the study cannot proceed and you will only receive 50 cents for participating.  </font><br/>\n            <br><br/>\n             <font size=5px; >When you are ready, press the <b>SPACE BAR</b> to bring up the video feed and make these adjustments. </font></div>","key_press":32,"trial_type":"html-keyboard-response","trial_index":4,"time_elapsed":7621,"internal_node_id":"0.0-4.0-0.0","browser_name":"Chrome","browser_type":"85.0","subject":"e2tp9d4","interaction":"[{\"event\":\"fullscreenenter\",\"trial\":1,\"time\":4539}]","windowWidth":1307,"windowHight":1120},{"validationPoints":"[{\"x\":\"80%\",\"y\":\"50%\",\"valid\":true,\"hitRatio\":0.9649122807017544},{\"x\":\"20%\",\"y\":\"50%\",\"valid\":true,\"hitRatio\":0.9292035398230089},{\"x\":\"20%\",\"y\":\"20%\",\"valid\":true,\"hitRatio\":0.9478260869565217},{\"x\":\"80%\",\"y\":\"80%\",\"valid\":true,\"hitRatio\":0.9830508474576272},{\"x\":\"20%\",\"y\":\"80%\",\"valid\":false,\"hitRatio\":0.3130434782608696},{\"x\":\"65%\",\"y\":\"35%\",\"valid\":true,\"hitRatio\":1},{\"x\":\"80%\",\"y\":\"20%\",\"valid\":true,\"hitRatio\":1},{\"x\":\"50%\",\"y\":\"80%\",\"valid\":true,\"hitRatio\":0.9663865546218487},{\"x\":\"35%\",\"y\":\"35%\",\"valid\":true,\"hitRatio\":0.9827586206896551},{\"x\":\"50%\",\"y\":\"20%\",\"valid\":true,\"hitRatio\":0.9830508474576272},{\"x\":\"35%\",\"y\":\"65%\",\"valid\":true,\"hitRatio\":0.9826086956521739},{\"x\":\"50%\",\"y\":\"50%\",\"valid\":true,\"hitRatio\":1}]","accuracy":0.9166666666666666,"trial_type":"eye-tracking","trial_index":5,"time_elapsed":88281,"internal_node_id":"0.0-4.0-1.0","browser_name":"Chrome","browser_type":"85.0","subject":"e2tp9d4","interaction":"[{\"event\":\"fullscreenenter\",\"trial\":1,\"time\":4539}]","windowWidth":1307,"windowHight":1120},{"rt":1180.7349999435246,"stimulus":"<div> <font size=120%; font color = 'green';>Experiment Overview </font><br/>\n                                                     <br><br/>\n                         Success! The calibration and validation were successful. <br/>\n                          Now, we will begin with the study. In Today's study, you will be making a series of decisions about snack foods.<br/> \n                          There will be multiple parts to the study, and you will receive instructions before each new part. <br/>\n                          You will earn a fixed fee of <b>$7</b> for completing the study.<br/>\n                                                        <br><br/>\n                          When you are ready, press the  <b>SPACE BAR</b> to continue. </div>","key_press":32,"trial_type":"html-keyboard-response","trial_index":6,"time_elapsed":89464,"internal_node_id":"0.0-5.0","browser_name":"Chrome","browser_type":"85.0","subject":"e2tp9d4","interaction":"[{\"event\":\"fullscreenenter\",\"trial\":1,\"time\":4539}]","windowWidth":1307,"windowHight":1120},{"rt":560.6150000821799,"stimulus":"<div> <font size=120%; font color = 'green';>Rating task</font><br/>\n                                       <br><br/>\n             Now, you will make decisions about each snack food one by one. <br/> \n             For each snack food, please rate it on a scale from 0 to 10 based on how much you would like to eat this food right now.<br/>\n             A 0 means that you would neither like nor dislike to eat this food.  <br/> \n             When choosing whether to eat this food or not, you would be willing to flip a coin.   <br/> \n             A 10 means that you would really love to eat this food. <br/> \n             If you dislike a food and would not want to eat it, then click DISLIKE. <br/> \n             During the task, you need to use your mouse to move the slider to your desired rating. <br/> \n                                          <br><br/>\n            When you are ready, press the  <b>SPACE BAR</b> to start.  </div>","key_press":32,"trial_type":"html-keyboard-response","trial_index":7,"time_elapsed":90526,"internal_node_id":"0.0-6.0","browser_name":"Chrome","browser_type":"85.0","subject":"e2tp9d4","interaction":"[{\"event\":\"fullscreenenter\",\"trial\":1,\"time\":4539}]","windowWidth":1307,"windowHight":1120},{"stimulus":"../img/FoodImages/foodStimulus_31.jpg","rt":1778.7200000602752,"rating":"1","trial_type":"image-slider-response","trial_index":8,"time_elapsed":92807,"internal_node_id":"0.0-7.0-0.0","browser_name":"Chrome","browser_type":"85.0","subject":"e2tp9d4","interaction":"[{\"event\":\"fullscreenenter\",\"trial\":1,\"time\":4539}]","windowWidth":1307,"windowHight":1120},{"stimulus":"../img/FoodImages/foodStimulus_35.jpg","rt":405.13999992981553,"rating":"0","trial_type":"image-slider-response","trial_index":9,"time_elapsed":93213,"internal_node_id":"0.0-7.0-1.0","browser_name":"Chrome","browser_type":"85.0","subject":"e2tp9d4","interaction":"[{\"event\":\"fullscreenenter\",\"trial\":1,\"time\":4539}]","windowWidth":1307,"windowHight":1120},{"stimulus":"../img/FoodImages/foodStimulus_24.jpg","rt":357.71000012755394,"rating":"1","trial_type":"image-slider-response","trial_index":10,"time_elapsed":93572,"internal_node_id":"0.0-7.0-2.0","browser_name":"Chrome","browser_type":"85.0","subject":"e2tp9d4","interaction":"[{\"event\":\"fullscreenenter\",\"trial\":1,\"time\":4539}]","windowWidth":1307,"windowHight":1120},{"stimulus":"../img/FoodImages/foodStimulus_20.jpg","rt":248.85999993421137,"rating":"2","trial_type":"image-slider-response","trial_index":11,"time_elapsed":93823,"internal_node_id":"0.0-7.0-3.0","browser_name":"Chrome","browser_type":"85.0","subject":"e2tp9d4","interaction":"[{\"event\":\"fullscreenenter\",\"trial\":1,\"time\":4539}]","windowWidth":1307,"windowHight":1120},{"stimulus":"../img/FoodImages/foodStimulus_45.jpg","rt":571.944999974221,"rating":"4","trial_type":"image-slider-response","trial_index":12,"time_elapsed":94396,"internal_node_id":"0.0-7.0-4.0","browser_name":"Chrome","browser_type":"85.0","subject":"e2tp9d4","interaction":"[{\"event\":\"fullscreenenter\",\"trial\":1,\"time\":4539}]","windowWidth":1307,"windowHight":1120},{"stimulus":"../img/FoodImages/foodStimulus_39.jpg","rt":158.1749999895692,"rating":"5","trial_type":"image-slider-response","trial_index":13,"time_elapsed":94555,"internal_node_id":"0.0-7.0-5.0","browser_name":"Chrome","browser_type":"85.0","subject":"e2tp9d4","interaction":"[{\"event\":\"fullscreenenter\",\"trial\":1,\"time\":4539}]","windowWidth":1307,"windowHight":1120},{"stimulus":"../img/FoodImages/foodStimulus_28.jpg","rt":301.2600000947714,"rating":"4","trial_type":"image-slider-response","trial_index":14,"time_elapsed":94858,"internal_node_id":"0.0-7.0-6.0","browser_name":"Chrome","browser_type":"85.0","subject":"e2tp9d4","interaction":"[{\"event\":\"fullscreenenter\",\"trial\":1,\"time\":4539}]","windowWidth":1307,"windowHight":1120},{"stimulus":"../img/FoodImages/foodStimulus_32.jpg","rt":255.074999993667,"rating":"5","trial_type":"image-slider-response","trial_index":15,"time_elapsed":95114,"internal_node_id":"0.0-7.0-7.0","browser_name":"Chrome","browser_type":"85.0","subject":"e2tp9d4","interaction":"[{\"event\":\"fullscreenenter\",\"trial\":1,\"time\":4539}]","windowWidth":1307,"windowHight":1120},{"stimulus":"../img/FoodImages/foodStimulus_9.jpg","rt":209.80000006966293,"rating":"2","trial_type":"image-slider-response","trial_index":16,"time_elapsed":95325,"internal_node_id":"0.0-7.0-8.0","browser_name":"Chrome","browser_type":"85.0","subject":"e2tp9d4","interaction":"[{\"event\":\"fullscreenenter\",\"trial\":1,\"time\":4539}]","windowWidth":1307,"windowHight":1120},{"stimulus":"../img/FoodImages/foodStimulus_41.jpg","rt":194.26000001840293,"rating":"0","trial_type":"image-slider-response","trial_index":17,"time_elapsed":95520,"internal_node_id":"0.0-7.0-9.0","browser_name":"Chrome","browser_type":"85.0","subject":"e2tp9d4","interaction":"[{\"event\":\"fullscreenenter\",\"trial\":1,\"time\":4539}]","windowWidth":1307,"windowHight":1120},{"stimulus":"../img/FoodImages/foodStimulus_27.jpg","rt":186.8700000923127,"rating":"3","trial_type":"image-slider-response","trial_index":18,"time_elapsed":95708,"internal_node_id":"0.0-7.0-10.0","browser_name":"Chrome","browser_type":"85.0","subject":"e2tp9d4","interaction":"[{\"event\":\"fullscreenenter\",\"trial\":1,\"time\":4539}]","windowWidth":1307,"windowHight":1120},{"stimulus":"../img/FoodImages/foodStimulus_42.jpg","rt":169.81000010855496,"rating":"1","trial_type":"image-slider-response","trial_index":19,"time_elapsed":95880,"internal_node_id":"0.0-7.0-11.0","browser_name":"Chrome","browser_type":"85.0","subject":"e2tp9d4","interaction":"[{\"event\":\"fullscreenenter\",\"trial\":1,\"time\":4539}]","windowWidth":1307,"windowHight":1120},{"stimulus":"../img/FoodImages/foodStimulus_46.jpg","rt":161.56999999657273,"rating":"2","trial_type":"image-slider-response","trial_index":20,"time_elapsed":96042,"internal_node_id":"0.0-7.0-12.0","browser_name":"Chrome","browser_type":"85.0","subject":"e2tp9d4","interaction":"[{\"event\":\"fullscreenenter\",\"trial\":1,\"time\":4539}]","windowWidth":1307,"windowHight":1120},{"stimulus":"../img/FoodImages/foodStimulus_11.jpg","rt":177.11499985307455,"rating":"5","trial_type":"image-slider-response","trial_index":21,"time_elapsed":96221,"internal_node_id":"0.0-7.0-13.0","browser_name":"Chrome","browser_type":"85.0","subject":"e2tp9d4","interaction":"[{\"event\":\"fullscreenenter\",\"trial\":1,\"time\":4539}]","windowWidth":1307,"windowHight":1120},{"stimulus":"../img/FoodImages/foodStimulus_16.jpg","rt":178.98000008426607,"rating":"4","trial_type":"image-slider-response","trial_index":22,"time_elapsed":96401,"internal_node_id":"0.0-7.0-14.0","browser_name":"Chrome","browser_type":"85.0","subject":"e2tp9d4","interaction":"[{\"event\":\"fullscreenenter\",\"trial\":1,\"time\":4539}]","windowWidth":1307,"windowHight":1120},{"stimulus":"../img/FoodImages/foodStimulus_6.jpg","rt":184.78000001050532,"rating":"3","trial_type":"image-slider-response","trial_index":23,"time_elapsed":96587,"internal_node_id":"0.0-7.0-15.0","browser_name":"Chrome","browser_type":"85.0","subject":"e2tp9d4","interaction":"[{\"event\":\"fullscreenenter\",\"trial\":1,\"time\":4539}]","windowWidth":1307,"windowHight":1120},{"stimulus":"../img/FoodImages/foodStimulus_3.jpg","rt":179.30499999783933,"rating":"2","trial_type":"image-slider-response","trial_index":24,"time_elapsed":96767,"internal_node_id":"0.0-7.0-16.0","browser_name":"Chrome","browser_type":"85.0","subject":"e2tp9d4","interaction":"[{\"event\":\"fullscreenenter\",\"trial\":1,\"time\":4539}]","windowWidth":1307,"windowHight":1120},{"stimulus":"../img/FoodImages/foodStimulus_17.jpg","rt":389.1499999444932,"rating":"0","trial_type":"image-slider-response","trial_index":25,"time_elapsed":97158,"internal_node_id":"0.0-7.0-17.0","browser_name":"Chrome","browser_type":"85.0","subject":"e2tp9d4","interaction":"[{\"event\":\"fullscreenenter\",\"trial\":1,\"time\":4539}]","windowWidth":1307,"windowHight":1120},{"stimulus":"../img/FoodImages/foodStimulus_40.jpg","rt":226.79500002413988,"rating":"1","trial_type":"image-slider-response","trial_index":26,"time_elapsed":97386,"internal_node_id":"0.0-7.0-18.0","browser_name":"Chrome","browser_type":"85.0","subject":"e2tp9d4","interaction":"[{\"event\":\"fullscreenenter\",\"trial\":1,\"time\":4539}]","windowWidth":1307,"windowHight":1120},{"stimulus":"../img/FoodImages/foodStimulus_34.jpg","rt":275.3200000151992,"rating":"0","trial_type":"image-slider-response","trial_index":27,"time_elapsed":97662,"internal_node_id":"0.0-7.0-19.0","browser_name":"Chrome","browser_type":"85.0","subject":"e2tp9d4","interaction":"[{\"event\":\"fullscreenenter\",\"trial\":1,\"time\":4539}]","windowWidth":1307,"windowHight":1120},{"stimulus":"../img/FoodImages/foodStimulus_30.jpg","rt":372.54499993287027,"rating":"0","trial_type":"image-slider-response","trial_index":28,"time_elapsed":98036,"internal_node_id":"0.0-7.0-20.0","browser_name":"Chrome","browser_type":"85.0","subject":"e2tp9d4","interaction":"[{\"event\":\"fullscreenenter\",\"trial\":1,\"time\":4539}]","windowWidth":1307,"windowHight":1120},{"stimulus":"../img/FoodImages/foodStimulus_15.jpg","rt":275.9899999946356,"rating":"0","trial_type":"image-slider-response","trial_index":29,"time_elapsed":98313,"internal_node_id":"0.0-7.0-21.0","browser_name":"Chrome","browser_type":"85.0","subject":"e2tp9d4","interaction":"[{\"event\":\"fullscreenenter\",\"trial\":1,\"time\":4539}]","windowWidth":1307,"windowHight":1120},{"stimulus":"../img/FoodImages/foodStimulus_8.jpg","rt":259.9450000561774,"rating":"2","trial_type":"image-slider-response","trial_index":30,"time_elapsed":98574,"internal_node_id":"0.0-7.0-22.0","browser_name":"Chrome","browser_type":"85.0","subject":"e2tp9d4","interaction":"[{\"event\":\"fullscreenenter\",\"trial\":1,\"time\":4539}]","windowWidth":1307,"windowHight":1120},{"stimulus":"../img/FoodImages/foodStimulus_26.jpg","rt":217.7850001025945,"rating":"3","trial_type":"image-slider-response","trial_index":31,"time_elapsed":98794,"internal_node_id":"0.0-7.0-23.0","browser_name":"Chrome","browser_type":"85.0","subject":"e2tp9d4","interaction":"[{\"event\":\"fullscreenenter\",\"trial\":1,\"time\":4539}]","windowWidth":1307,"windowHight":1120},{"stimulus":"../img/FoodImages/foodStimulus_38.jpg","rt":193.79000016488135,"rating":"4","trial_type":"image-slider-response","trial_index":32,"time_elapsed":98988,"internal_node_id":"0.0-7.0-24.0","browser_name":"Chrome","browser_type":"85.0","subject":"e2tp9d4","interaction":"[{\"event\":\"fullscreenenter\",\"trial\":1,\"time\":4539}]","windowWidth":1307,"windowHight":1120},{"stimulus":"../img/FoodImages/foodStimulus_36.jpg","rt":204.45999992080033,"rating":"3","trial_type":"image-slider-response","trial_index":33,"time_elapsed":99194,"internal_node_id":"0.0-7.0-25.0","browser_name":"Chrome","browser_type":"85.0","subject":"e2tp9d4","interaction":"[{\"event\":\"fullscreenenter\",\"trial\":1,\"time\":4539}]","windowWidth":1307,"windowHight":1120},{"stimulus":"../img/FoodImages/foodStimulus_43.jpg","rt":202.4300000630319,"rating":"0","trial_type":"image-slider-response","trial_index":34,"time_elapsed":99398,"internal_node_id":"0.0-7.0-26.0","browser_name":"Chrome","browser_type":"85.0","subject":"e2tp9d4","interaction":"[{\"event\":\"fullscreenenter\",\"trial\":1,\"time\":4539}]","windowWidth":1307,"windowHight":1120},{"stimulus":"../img/FoodImages/foodStimulus_37.jpg","rt":193.5399998910725,"rating":"3","trial_type":"image-slider-response","trial_index":35,"time_elapsed":99593,"internal_node_id":"0.0-7.0-27.0","browser_name":"Chrome","browser_type":"85.0","subject":"e2tp9d4","interaction":"[{\"event\":\"fullscreenenter\",\"trial\":1,\"time\":4539}]","windowWidth":1307,"windowHight":1120},{"stimulus":"../img/FoodImages/foodStimulus_13.jpg","rt":182.340000057593,"rating":"0","trial_type":"image-slider-response","trial_index":36,"time_elapsed":99776,"internal_node_id":"0.0-7.0-28.0","browser_name":"Chrome","browser_type":"85.0","subject":"e2tp9d4","interaction":"[{\"event\":\"fullscreenenter\",\"trial\":1,\"time\":4539}]","windowWidth":1307,"windowHight":1120},{"stimulus":"../img/FoodImages/foodStimulus_25.jpg","rt":168.43000007793307,"rating":"1","trial_type":"image-slider-response","trial_index":37,"time_elapsed":99946,"internal_node_id":"0.0-7.0-29.0","browser_name":"Chrome","browser_type":"85.0","subject":"e2tp9d4","interaction":"[{\"event\":\"fullscreenenter\",\"trial\":1,\"time\":4539}]","windowWidth":1307,"windowHight":1120},{"stimulus":"../img/FoodImages/foodStimulus_12.jpg","rt":169.6800000499934,"rating":"0","trial_type":"image-slider-response","trial_index":38,"time_elapsed":100117,"internal_node_id":"0.0-7.0-30.0","browser_name":"Chrome","browser_type":"85.0","subject":"e2tp9d4","interaction":"[{\"event\":\"fullscreenenter\",\"trial\":1,\"time\":4539}]","windowWidth":1307,"windowHight":1120},{"stimulus":"../img/FoodImages/foodStimulus_19.jpg","rt":161.4900000859052,"rating":"0","trial_type":"image-slider-response","trial_index":39,"time_elapsed":100280,"internal_node_id":"0.0-7.0-31.0","browser_name":"Chrome","browser_type":"85.0","subject":"e2tp9d4","interaction":"[{\"event\":\"fullscreenenter\",\"trial\":1,\"time\":4539}]","windowWidth":1307,"windowHight":1120}]