[{"rt":null,"stimulus":"<span id=\"calibration_dot_instruction\"></span>","key_press":null,"trial_type":"html-keyboard-response","trial_index":160,"time_elapsed":443412,"internal_node_id":"0.0-16.9-1.9-0.9","browser_name":"Chrome","browser_type":"85.0","subject":"e2tp9d4","interaction":"[]","windowWidth":1307,"windowHight":1120},{"stimulus":["../img/FoodImages/foodStimulus_16.jpg","../img/FoodImages/foodStimulus_35.jpg"],"left_stimulus":"../img/FoodImages/foodStimulus_16.jpg","right_stimulus":"../img/FoodImages/foodStimulus_35.jpg","rt":345.7100000232458,"key_press":70,"choices":["F","J"],"eyeData":"{\"history\":[{\"relative-x\":0.4254016832440704,\"relative-y\":0.34464285714285714,\"relative-x2\":0.4254016832440704,\"relative-y2\":0.34464285714285714,\"elapse-time\":93.15499989315867},{\"relative-x\":0.5638867635807192,\"relative-y\":0.41875,\"relative-x2\":0.5638867635807192,\"relative-y2\":0.41875,\"elapse-time\":170.3099999576807},{\"relative-x\":0.41545524100994646,\"relative-y\":0.3196428571428571,\"relative-x2\":0.41545524100994646,\"relative-y2\":0.3196428571428571,\"elapse-time\":252.43999995291233},{\"relative-x\":0.35807192042846214,\"relative-y\":0.35535714285714287,\"relative-x2\":0.35807192042846214,\"relative-y2\":0.35535714285714287,\"elapse-time\":334.5049999188632},{\"relative-x\":0.36266258607498086,\"relative-y\":0.325,\"relative-x2\":0.36266258607498086,\"relative-y2\":0.325,\"elapse-time\":409.70499999821186},{\"relative-x\":0.21652639632746748,\"relative-y\":0.40625,\"relative-x2\":0.21652639632746748,\"relative-y2\":0.40625,\"elapse-time\":492.6050000358373},{\"relative-x\":0.2249426166794185,\"relative-y\":0.37857142857142856,\"relative-x2\":0.2249426166794185,\"relative-y2\":0.37857142857142856,\"elapse-time\":570.8250000607222},{\"relative-x\":0.17674062739097168,\"relative-y\":0.32142857142857145,\"relative-x2\":0.17674062739097168,\"relative-y2\":0.32142857142857145,\"elapse-time\":651.575000025332},{\"relative-x\":0.2111706197398623,\"relative-y\":0.3678571428571429,\"relative-x2\":0.2111706197398623,\"relative-y2\":0.3678571428571429,\"elapse-time\":732.6299999840558},{\"relative-x\":0.12165263963274675,\"relative-y\":0.41517857142857145,\"relative-x2\":0.12165263963274675,\"relative-y2\":0.41517857142857145,\"elapse-time\":811.9550000410527}]}","realtrial":true,"trial_type":"binary-choice","trial_index":161,"time_elapsed":444260,"internal_node_id":"0.0-16.9-2.9","browser_name":"Chrome","browser_type":"85.0","subject":"e2tp9d4","interaction":"[]","windowWidth":1307,"windowHight":1120},{"validationPoints":"[{\"x\":\"35%\",\"y\":\"65%\",\"valid\":true,\"hitRatio\":0.9576271186440678},{\"x\":\"65%\",\"y\":\"65%\",\"valid\":true,\"hitRatio\":0.7387387387387387},{\"x\":\"50%\",\"y\":\"50%\",\"valid\":true,\"hitRatio\":0.9914529914529915}]","accuracy":1,"trial_type":"eye-tracking","trial_index":162,"time_elapsed":454301,"internal_node_id":"0.0-16.10-0.10-0.10","browser_name":"Chrome","browser_type":"85.0","subject":"e2tp9d4","interaction":"[]","windowWidth":1307,"windowHight":1120},{"stimulus":["../img/FoodImages/foodStimulus_35.jpg","../img/FoodImages/foodStimulus_31.jpg"],"left_stimulus":"../img/FoodImages/foodStimulus_35.jpg","right_stimulus":"../img/FoodImages/foodStimulus_31.jpg","rt":286.9299999438226,"key_press":74,"choices":["F","J"],"eyeData":"{\"history\":[{\"relative-x\":0.5998469778117828,\"relative-y\":0.5696428571428571,\"relative-x2\":0.5998469778117828,\"relative-y2\":0.5696428571428571,\"elapse-time\":91.9749999884516},{\"relative-x\":0.4506503442999235,\"relative-y\":0.46964285714285714,\"relative-x2\":0.4506503442999235,\"relative-y2\":0.46964285714285714,\"elapse-time\":171.30999988876283},{\"relative-x\":0.5730680948737567,\"relative-y\":0.5276785714285714,\"relative-x2\":0.5730680948737567,\"relative-y2\":0.5276785714285714,\"elapse-time\":251.74500001594424},{\"relative-x\":0.45294567712318284,\"relative-y\":0.4375,\"relative-x2\":0.45294567712318284,\"relative-y2\":0.4375,\"elapse-time\":341.3499998860061},{\"relative-x\":0.6602907421576129,\"relative-y\":0.4401785714285714,\"relative-x2\":0.6602907421576129,\"relative-y2\":0.4401785714285714,\"elapse-time\":410.54999991320074},{\"relative-x\":0.8844682478959449,\"relative-y\":0.39553571428571427,\"relative-x2\":0.8844682478959449,\"relative-y2\":0.39553571428571427,\"elapse-time\":492.7399998996407},{\"relative-x\":0.7521040550879877,\"relative-y\":0.5035714285714286,\"relative-x2\":0.7521040550879877,\"relative-y2\":0.5035714285714286,\"elapse-time\":571.6599998995662},{\"relative-x\":0.8668706962509564,\"relative-y\":0.3392857142857143,\"relative-x2\":0.8668706962509564,\"relative-y2\":0.3392857142857143,\"elapse-time\":652.364999987185},{\"relative-x\":0.6281560826319816,\"relative-y\":0.5214285714285715,\"relative-x2\":0.6281560826319816,\"relative-y2\":0.5214285714285715,\"elapse-time\":733.4999998565763}]}","realtrial":true,"trial_type":"binary-choice","trial_index":163,"time_elapsed":455092,"internal_node_id":"0.0-16.10-2.10","browser_name":"Chrome","browser_type":"85.0","subject":"e2tp9d4","interaction":"[]","windowWidth":1307,"windowHight":1120},{"rt":null,"stimulus":"<span id=\"calibration_dot_instruction\"></span>","key_press":null,"trial_type":"html-keyboard-response","trial_index":164,"time_elapsed":455595,"internal_node_id":"0.0-16.11-1.11-0.11","browser_name":"Chrome","browser_type":"85.0","subject":"e2tp9d4","interaction":"[]","windowWidth":1307,"windowHight":1120},{"stimulus":["../img/FoodImages/foodStimulus_20.jpg","../img/FoodImages/foodStimulus_27.jpg"],"left_stimulus":"../img/FoodImages/foodStimulus_20.jpg","right_stimulus":"../img/FoodImages/foodStimulus_27.jpg","rt":396.86999982222915,"key_press":70,"choices":["F","J"],"eyeData":"{\"history\":[{\"relative-x\":0.5210405508798776,\"relative-y\":0.4080357142857143,\"relative-x2\":0.5210405508798776,\"relative-y2\":0.4080357142857143,\"elapse-time\":91.37000003829598},{\"relative-x\":0.468247895944912,\"relative-y\":0.3705357142857143,\"relative-x2\":0.468247895944912,\"relative-y2\":0.3705357142857143,\"elapse-time\":171.40499991364777},{\"relative-x\":0.5156847742922723,\"relative-y\":0.36339285714285713,\"relative-x2\":0.5156847742922723,\"relative-y2\":0.36339285714285713,\"elapse-time\":249.79500006884336},{\"relative-x\":0.4452945677123183,\"relative-y\":0.43839285714285714,\"relative-x2\":0.4452945677123183,\"relative-y2\":0.43839285714285714,\"elapse-time\":334.789999993518},{\"relative-x\":0.31293037490436115,\"relative-y\":0.5464285714285714,\"relative-x2\":0.31293037490436115,\"relative-y2\":0.5464285714285714,\"elapse-time\":411.0399999190122},{\"relative-x\":0.2127008416220352,\"relative-y\":0.4705357142857143,\"relative-x2\":0.2127008416220352,\"relative-y2\":0.4705357142857143,\"elapse-time\":492.7499999757856},{\"relative-x\":0.24713083397092578,\"relative-y\":0.4455357142857143,\"relative-x2\":0.24713083397092578,\"relative-y2\":0.4455357142857143,\"elapse-time\":571.5799999888986},{\"relative-x\":0.15914307574598316,\"relative-y\":0.4455357142857143,\"relative-x2\":0.15914307574598316,\"relative-y2\":0.4455357142857143,\"elapse-time\":650.2849999815226},{\"relative-x\":0.10482019892884469,\"relative-y\":0.4044642857142857,\"relative-x2\":0.10482019892884469,\"relative-y2\":0.4044642857142857,\"elapse-time\":731.4800000749528},{\"relative-x\":0.15225707727620505,\"relative-y\":0.4330357142857143,\"relative-x2\":0.15225707727620505,\"relative-y2\":0.4330357142857143,\"elapse-time\":811.9250000454485},{\"relative-x\":0.6870696250956388,\"relative-y\":0.5044642857142857,\"relative-x2\":0.6870696250956388,\"relative-y2\":0.5044642857142857,\"elapse-time\":892.4799999222159}]}","realtrial":true,"trial_type":"binary-choice","trial_index":165,"time_elapsed":456495,"internal_node_id":"0.0-16.11-2.11","browser_name":"Chrome","browser_type":"85.0","subject":"e2tp9d4","interaction":"[]","windowWidth":1307,"windowHight":1120},{"rt":null,"stimulus":"<span id=\"calibration_dot_instruction\"></span>","key_press":null,"trial_type":"html-keyboard-response","trial_index":166,"time_elapsed":456998,"internal_node_id":"0.0-16.12-1.12-0.12","browser_name":"Chrome","browser_type":"85.0","subject":"e2tp9d4","interaction":"[]","windowWidth":1307,"windowHight":1120},{"stimulus":["../img/FoodImages/foodStimulus_39.jpg","../img/FoodImages/foodStimulus_6.jpg"],"left_stimulus":"../img/FoodImages/foodStimulus_39.jpg","right_stimulus":"../img/FoodImages/foodStimulus_6.jpg","rt":308.5499999579042,"key_press":74,"choices":["F","J"],"eyeData":"{\"history\":[{\"relative-x\":0.5164498852333589,\"relative-y\":0.4642857142857143,\"relative-x2\":0.5164498852333589,\"relative-y2\":0.4642857142857143,\"elapse-time\":93.00999995321035},{\"relative-x\":0.42846212700841624,\"relative-y\":0.38839285714285715,\"relative-x2\":0.42846212700841624,\"relative-y2\":0.38839285714285715,\"elapse-time\":171.86999996192753},{\"relative-x\":0.45983167559296095,\"relative-y\":0.34464285714285714,\"relative-x2\":0.45983167559296095,\"relative-y2\":0.34464285714285714,\"elapse-time\":249.53000014647841},{\"relative-x\":0.4628921193573068,\"relative-y\":0.3580357142857143,\"relative-x2\":0.4628921193573068,\"relative-y2\":0.3580357142857143,\"elapse-time\":339.780000038445},{\"relative-x\":0.7941851568477429,\"relative-y\":0.38392857142857145,\"relative-x2\":0.7941851568477429,\"relative-y2\":0.38392857142857145,\"elapse-time\":411.8250000756234},{\"relative-x\":0.7918898240244836,\"relative-y\":0.22142857142857142,\"relative-x2\":0.7918898240244836,\"relative-y2\":0.22142857142857142,\"elapse-time\":492.70000006072223},{\"relative-x\":0.819433817903596,\"relative-y\":0.42232142857142857,\"relative-x2\":0.819433817903596,\"relative-y2\":0.42232142857142857,\"elapse-time\":570.4100001603365},{\"relative-x\":0.7949502677888294,\"relative-y\":0.4401785714285714,\"relative-x2\":0.7949502677888294,\"relative-y2\":0.4401785714285714,\"elapse-time\":649.8950000386685},{\"relative-x\":0.8393267023718439,\"relative-y\":0.37857142857142856,\"relative-x2\":0.8393267023718439,\"relative-y2\":0.37857142857142856,\"elapse-time\":734.8450000863522},{\"relative-x\":0.6641162968630452,\"relative-y\":0.3196428571428571,\"relative-x2\":0.6641162968630452,\"relative-y2\":0.3196428571428571,\"elapse-time\":811.1950000748038}]}","realtrial":true,"trial_type":"binary-choice","trial_index":167,"time_elapsed":457812,"internal_node_id":"0.0-16.12-2.12","browser_name":"Chrome","browser_type":"85.0","subject":"e2tp9d4","interaction":"[]","windowWidth":1307,"windowHight":1120},{"rt":null,"stimulus":"<span id=\"calibration_dot_instruction\"></span>","key_press":null,"trial_type":"html-keyboard-response","trial_index":168,"time_elapsed":458313,"internal_node_id":"0.0-16.13-1.13-0.13","browser_name":"Chrome","browser_type":"85.0","subject":"e2tp9d4","interaction":"[]","windowWidth":1307,"windowHight":1120},{"stimulus":["../img/FoodImages/foodStimulus_39.jpg","../img/FoodImages/foodStimulus_46.jpg"],"left_stimulus":"../img/FoodImages/foodStimulus_39.jpg","right_stimulus":"../img/FoodImages/foodStimulus_46.jpg","rt":1482.259999960661,"key_press":70,"choices":["F","J"],"eyeData":"{\"history\":[{\"relative-x\":0.5126243305279266,\"relative-y\":0.4294642857142857,\"relative-x2\":0.5126243305279266,\"relative-y2\":0.4294642857142857,\"elapse-time\":92.07499981857836},{\"relative-x\":0.49426166794185156,\"relative-y\":0.4446428571428571,\"relative-x2\":0.49426166794185156,\"relative-y2\":0.4446428571428571,\"elapse-time\":170.20499985665083},{\"relative-x\":0.49273144605967867,\"relative-y\":0.4375,\"relative-x2\":0.49273144605967867,\"relative-y2\":0.4375,\"elapse-time\":258.3199997898191},{\"relative-x\":0.3749043611323642,\"relative-y\":0.45089285714285715,\"relative-x2\":0.3749043611323642,\"relative-y2\":0.45089285714285715,\"elapse-time\":330.5949999485165},{\"relative-x\":0.4085692425401683,\"relative-y\":0.5276785714285714,\"relative-x2\":0.4085692425401683,\"relative-y2\":0.5276785714285714,\"elapse-time\":412.7899999730289},{\"relative-x\":0.20811017597551645,\"relative-y\":0.49910714285714286,\"relative-x2\":0.20811017597551645,\"relative-y2\":0.49910714285714286,\"elapse-time\":491.41499982215464},{\"relative-x\":0.7146136189747513,\"relative-y\":0.3339285714285714,\"relative-x2\":0.7146136189747513,\"relative-y2\":0.3339285714285714,\"elapse-time\":569.954999955371},{\"relative-x\":0.7872991583779648,\"relative-y\":0.34464285714285714,\"relative-x2\":0.7872991583779648,\"relative-y2\":0.34464285714285714,\"elapse-time\":653.4549999050796},{\"relative-x\":0.8844682478959449,\"relative-y\":0.43214285714285716,\"relative-x2\":0.8844682478959449,\"relative-y2\":0.43214285714285716,\"elapse-time\":730.1250000018626},{\"relative-x\":0.7681713848508034,\"relative-y\":0.4419642857142857,\"relative-x2\":0.7681713848508034,\"relative-y2\":0.4419642857142857,\"elapse-time\":807.984999846667},{\"relative-x\":0.7214996174445295,\"relative-y\":0.3723214285714286,\"relative-x2\":0.7214996174445295,\"relative-y2\":0.3723214285714286,\"elapse-time\":891.1849998403341},{\"relative-x\":0.8569242540168325,\"relative-y\":0.36428571428571427,\"relative-x2\":0.8569242540168325,\"relative-y2\":0.36428571428571427,\"elapse-time\":970.0549999251962},{\"relative-x\":0.20275439938791126,\"relative-y\":0.40625,\"relative-x2\":0.20275439938791126,\"relative-y2\":0.40625,\"elapse-time\":1053.3899997826666},{\"relative-x\":0.2019892884468248,\"relative-y\":0.36339285714285713,\"relative-x2\":0.2019892884468248,\"relative-y2\":0.36339285714285713,\"elapse-time\":1130.8999999891967},{\"relative-x\":0.23565416985462892,\"relative-y\":0.4401785714285714,\"relative-x2\":0.23565416985462892,\"relative-y2\":0.4401785714285714,\"elapse-time\":1211.769999936223},{\"relative-x\":0.13618974751338944,\"relative-y\":0.41696428571428573,\"relative-x2\":0.13618974751338944,\"relative-y2\":0.41696428571428573,\"elapse-time\":1291.2949998863041},{\"relative-x\":0.23029839326702373,\"relative-y\":0.34017857142857144,\"relative-x2\":0.23029839326702373,\"relative-y2\":0.34017857142857144,\"elapse-time\":1371.7849999666214},{\"relative-x\":0.02448355011476664,\"relative-y\":0.4419642857142857,\"relative-x2\":0.02448355011476664,\"relative-y2\":0.4419642857142857,\"elapse-time\":1453.56999989599},{\"relative-x\":0.13083397092578425,\"relative-y\":0.38839285714285715,\"relative-x2\":0.13083397092578425,\"relative-y2\":0.38839285714285715,\"elapse-time\":1532.0349999237806},{\"relative-x\":0.06579954093343535,\"relative-y\":0.34732142857142856,\"relative-x2\":0.06579954093343535,\"relative-y2\":0.34732142857142856,\"elapse-time\":1612.544999923557},{\"relative-x\":0.090283091048202,\"relative-y\":0.3732142857142857,\"relative-x2\":0.090283091048202,\"relative-y2\":0.3732142857142857,\"elapse-time\":1691.3849997799844},{\"relative-x\":0.1407804131599082,\"relative-y\":0.45089285714285715,\"relative-x2\":0.1407804131599082,\"relative-y2\":0.45089285714285715,\"elapse-time\":1772.2849999554455},{\"relative-x\":0.2035195103289977,\"relative-y\":0.42857142857142855,\"relative-x2\":0.2035195103289977,\"relative-y2\":0.42857142857142855,\"elapse-time\":1854.744999902323},{\"relative-x\":0.4506503442999235,\"relative-y\":0.40089285714285716,\"relative-x2\":0.4506503442999235,\"relative-y2\":0.40089285714285716,\"elapse-time\":1930.3150000050664}]}","realtrial":true,"trial_type":"binary-choice","trial_index":169,"time_elapsed":460296,"internal_node_id":"0.0-16.13-2.13","browser_name":"Chrome","browser_type":"85.0","subject":"e2tp9d4","interaction":"[]","windowWidth":1307,"windowHight":1120},{"rt":null,"stimulus":"<span id=\"calibration_dot_instruction\"></span>","key_press":null,"trial_type":"html-keyboard-response","trial_index":170,"time_elapsed":460800,"internal_node_id":"0.0-16.14-1.14-0.14","browser_name":"Chrome","browser_type":"85.0","subject":"e2tp9d4","interaction":"[]","windowWidth":1307,"windowHight":1120},{"stimulus":["../img/FoodImages/foodStimulus_9.jpg","../img/FoodImages/foodStimulus_32.jpg"],"left_stimulus":"../img/FoodImages/foodStimulus_9.jpg","right_stimulus":"../img/FoodImages/foodStimulus_32.jpg","rt":868.3150000870228,"key_press":74,"choices":["F","J"],"eyeData":"{\"history\":[{\"relative-x\":0.5876052027543994,\"relative-y\":0.5044642857142857,\"relative-x2\":0.5876052027543994,\"relative-y2\":0.5044642857142857,\"elapse-time\":91.03000001050532},{\"relative-x\":0.5845447589900535,\"relative-y\":0.5017857142857143,\"relative-x2\":0.5845447589900535,\"relative-y2\":0.5017857142857143,\"elapse-time\":170.88000010699034},{\"relative-x\":0.43764345830145374,\"relative-y\":0.4473214285714286,\"relative-x2\":0.43764345830145374,\"relative-y2\":0.4473214285714286,\"elapse-time\":251.58499996177852},{\"relative-x\":0.5141545524100994,\"relative-y\":0.4044642857142857,\"relative-x2\":0.5141545524100994,\"relative-y2\":0.4044642857142857,\"elapse-time\":334.09000001847744},{\"relative-x\":0.7214996174445295,\"relative-y\":0.39732142857142855,\"relative-x2\":0.7214996174445295,\"relative-y2\":0.39732142857142855,\"elapse-time\":411.3800001796335},{\"relative-x\":0.7314460596786534,\"relative-y\":0.37589285714285714,\"relative-x2\":0.7314460596786534,\"relative-y2\":0.37589285714285714,\"elapse-time\":492.65999998897314},{\"relative-x\":0.722264728385616,\"relative-y\":0.3776785714285714,\"relative-x2\":0.722264728385616,\"relative-y2\":0.3776785714285714,\"elapse-time\":570.8550000563264},{\"relative-x\":0.7674062739097169,\"relative-y\":0.4017857142857143,\"relative-x2\":0.7674062739097169,\"relative-y2\":0.4017857142857143,\"elapse-time\":651.480000000447},{\"relative-x\":0.35348125478194337,\"relative-y\":0.5446428571428571,\"relative-x2\":0.35348125478194337,\"relative-y2\":0.5446428571428571,\"elapse-time\":732.1450000163168},{\"relative-x\":0.20734506503442998,\"relative-y\":0.32142857142857145,\"relative-x2\":0.20734506503442998,\"relative-y2\":0.32142857142857145,\"elapse-time\":809.8699999973178},{\"relative-x\":0.14384085692425402,\"relative-y\":0.40089285714285716,\"relative-x2\":0.14384085692425402,\"relative-y2\":0.40089285714285716,\"elapse-time\":890.4699999839067},{\"relative-x\":0.7253251721499617,\"relative-y\":0.4107142857142857,\"relative-x2\":0.7253251721499617,\"relative-y2\":0.4107142857142857,\"elapse-time\":971.7350001446903},{\"relative-x\":0.8240244835501148,\"relative-y\":0.5080357142857143,\"relative-x2\":0.8240244835501148,\"relative-y2\":0.5080357142857143,\"elapse-time\":1049.2400000803173},{\"relative-x\":0.8775822494261668,\"relative-y\":0.4348214285714286,\"relative-x2\":0.8775822494261668,\"relative-y2\":0.4348214285714286,\"elapse-time\":1134.3650000635535},{\"relative-x\":0.8530986993114001,\"relative-y\":0.49642857142857144,\"relative-x2\":0.8530986993114001,\"relative-y2\":0.49642857142857144,\"elapse-time\":1210.5549999978393},{\"relative-x\":0.6977811782708493,\"relative-y\":0.4517857142857143,\"relative-x2\":0.6977811782708493,\"relative-y2\":0.4517857142857143,\"elapse-time\":1293.199999956414},{\"relative-x\":0.6365723029839326,\"relative-y\":0.46964285714285714,\"relative-x2\":0.6365723029839326,\"relative-y2\":0.46964285714285714,\"elapse-time\":1370.7600000780076}]}","realtrial":true,"trial_type":"binary-choice","trial_index":171,"time_elapsed":462173,"internal_node_id":"0.0-16.14-2.14","browser_name":"Chrome","browser_type":"85.0","subject":"e2tp9d4","interaction":"[]","windowWidth":1307,"windowHight":1120},{"validationPoints":"[{\"x\":\"35%\",\"y\":\"65%\",\"valid\":true,\"hitRatio\":0.9298245614035088},{\"x\":\"80%\",\"y\":\"20%\",\"valid\":false,\"hitRatio\":0.6517857142857143},{\"x\":\"50%\",\"y\":\"50%\",\"valid\":true,\"hitRatio\":0.9459459459459459}]","accuracy":0.6666666666666666,"trial_type":"eye-tracking","trial_index":172,"time_elapsed":472200,"internal_node_id":"0.0-16.15-0.15-0.15","browser_name":"Chrome","browser_type":"85.0","subject":"e2tp9d4","interaction":"[]","windowWidth":1307,"windowHight":1120},{"stimulus":["../img/FoodImages/foodStimulus_42.jpg","../img/FoodImages/foodStimulus_35.jpg"],"left_stimulus":"../img/FoodImages/foodStimulus_42.jpg","right_stimulus":"../img/FoodImages/foodStimulus_35.jpg","rt":1514.6599998697639,"key_press":74,"choices":["F","J"],"eyeData":"{\"history\":[{\"relative-x\":0.4468247895944912,\"relative-y\":0.39553571428571427,\"relative-x2\":0.4468247895944912,\"relative-y2\":0.39553571428571427,\"elapse-time\":93.11000001616776},{\"relative-x\":0.43534812547819435,\"relative-y\":0.4830357142857143,\"relative-x2\":0.43534812547819435,\"relative-y2\":0.4830357142857143,\"elapse-time\":172.00500005856156},{\"relative-x\":0.4452945677123183,\"relative-y\":0.5098214285714285,\"relative-x2\":0.4452945677123183,\"relative-y2\":0.5098214285714285,\"elapse-time\":250.69999997504056},{\"relative-x\":0.39862280030604436,\"relative-y\":0.36607142857142855,\"relative-x2\":0.39862280030604436,\"relative-y2\":0.36607142857142855,\"elapse-time\":331.9349999073893},{\"relative-x\":0.7345065034429993,\"relative-y\":0.4375,\"relative-x2\":0.7345065034429993,\"relative-y2\":0.4375,\"elapse-time\":412.379999877885},{\"relative-x\":0.7016067329762815,\"relative-y\":0.3375,\"relative-x2\":0.7016067329762815,\"relative-y2\":0.3375,\"elapse-time\":492.6899999845773},{\"relative-x\":0.8622800306044377,\"relative-y\":0.3366071428571429,\"relative-x2\":0.8622800306044377,\"relative-y2\":0.3366071428571429,\"elapse-time\":571.4700000826269},{\"relative-x\":0.9663351185921959,\"relative-y\":0.4785714285714286,\"relative-x2\":0.9663351185921959,\"relative-y2\":0.4785714285714286,\"elapse-time\":651.2849999126047},{\"relative-x\":0.4185156847742923,\"relative-y\":0.47946428571428573,\"relative-x2\":0.4185156847742923,\"relative-y2\":0.47946428571428573,\"elapse-time\":732.3600000236183},{\"relative-x\":0.2486610558530987,\"relative-y\":0.43660714285714286,\"relative-x2\":0.2486610558530987,\"relative-y2\":0.43660714285714286,\"elapse-time\":812.0099999941885},{\"relative-x\":0.20504973221117062,\"relative-y\":0.2875,\"relative-x2\":0.20504973221117062,\"relative-y2\":0.2875,\"elapse-time\":891.6700000409037},{\"relative-x\":0.20275439938791126,\"relative-y\":0.4758928571428571,\"relative-x2\":0.20275439938791126,\"relative-y2\":0.4758928571428571,\"elapse-time\":971.5050000231713},{\"relative-x\":0.07421576128538639,\"relative-y\":0.4330357142857143,\"relative-x2\":0.07421576128538639,\"relative-y2\":0.4330357142857143,\"elapse-time\":1050.49500009045},{\"relative-x\":0.11017597551644988,\"relative-y\":0.3517857142857143,\"relative-x2\":0.11017597551644988,\"relative-y2\":0.3517857142857143,\"elapse-time\":1132.4249999597669},{\"relative-x\":0.19051262433052793,\"relative-y\":0.40625,\"relative-x2\":0.19051262433052793,\"relative-y2\":0.40625,\"elapse-time\":1211.42499987036},{\"relative-x\":0.19586840091813312,\"relative-y\":0.3892857142857143,\"relative-x2\":0.19586840091813312,\"relative-y2\":0.3892857142857143,\"elapse-time\":1292.5249999389052},{\"relative-x\":0.5738332058148432,\"relative-y\":0.4517857142857143,\"relative-x2\":0.5738332058148432,\"relative-y2\":0.4517857142857143,\"elapse-time\":1370.8450000267476},{\"relative-x\":0.8523335883703137,\"relative-y\":0.43392857142857144,\"relative-x2\":0.8523335883703137,\"relative-y2\":0.43392857142857144,\"elapse-time\":1452.155000064522},{\"relative-x\":0.7765876052027544,\"relative-y\":0.4232142857142857,\"relative-x2\":0.7765876052027544,\"relative-y2\":0.4232142857142857,\"elapse-time\":1530.9649999253452},{\"relative-x\":0.8224942616679418,\"relative-y\":0.3723214285714286,\"relative-x2\":0.8224942616679418,\"relative-y2\":0.3723214285714286,\"elapse-time\":1610.5299999471754},{\"relative-x\":0.791124713083397,\"relative-y\":0.42589285714285713,\"relative-x2\":0.791124713083397,\"relative-y2\":0.42589285714285713,\"elapse-time\":1692.784999962896},{\"relative-x\":0.7758224942616679,\"relative-y\":0.40625,\"relative-x2\":0.7758224942616679,\"relative-y2\":0.40625,\"elapse-time\":1770.7249999511987},{\"relative-x\":0.7314460596786534,\"relative-y\":0.3107142857142857,\"relative-x2\":0.7314460596786534,\"relative-y2\":0.3107142857142857,\"elapse-time\":1852.2349998820573},{\"relative-x\":0.8224942616679418,\"relative-y\":0.2794642857142857,\"relative-x2\":0.8224942616679418,\"relative-y2\":0.2794642857142857,\"elapse-time\":1931.5549999009818},{\"relative-x\":0.7712318286151492,\"relative-y\":0.30892857142857144,\"relative-x2\":0.7712318286151492,\"relative-y2\":0.30892857142857144,\"elapse-time\":2012.4800000339746}]}","realtrial":true,"trial_type":"binary-choice","trial_index":173,"time_elapsed":474220,"internal_node_id":"0.0-16.15-2.15","browser_name":"Chrome","browser_type":"85.0","subject":"e2tp9d4","interaction":"[]","windowWidth":1307,"windowHight":1120},{"rt":null,"stimulus":"<span id=\"calibration_dot_instruction\"></span>","key_press":null,"trial_type":"html-keyboard-response","trial_index":174,"time_elapsed":474722,"internal_node_id":"0.0-16.16-1.16-0.16","browser_name":"Chrome","browser_type":"85.0","subject":"e2tp9d4","interaction":"[]","windowWidth":1307,"windowHight":1120},{"stimulus":["../img/FoodImages/foodStimulus_3.jpg","../img/FoodImages/foodStimulus_39.jpg"],"left_stimulus":"../img/FoodImages/foodStimulus_3.jpg","right_stimulus":"../img/FoodImages/foodStimulus_39.jpg","rt":2299.125000135973,"key_press":70,"choices":["F","J"],"eyeData":"{\"history\":[{\"relative-x\":0.8201989288446825,\"relative-y\":0.4758928571428571,\"relative-x2\":0.8201989288446825,\"relative-y2\":0.4758928571428571,\"elapse-time\":92.6200000103563},{\"relative-x\":0.6472838561591431,\"relative-y\":0.4642857142857143,\"relative-x2\":0.6472838561591431,\"relative-y2\":0.4642857142857143,\"elapse-time\":170.44000001624227},{\"relative-x\":0.4139250191277735,\"relative-y\":0.42589285714285713,\"relative-x2\":0.4139250191277735,\"relative-y2\":0.42589285714285713,\"elapse-time\":249.42000000737607},{\"relative-x\":0.44912012241775057,\"relative-y\":0.37142857142857144,\"relative-x2\":0.44912012241775057,\"relative-y2\":0.37142857142857144,\"elapse-time\":333.9750000741333},{\"relative-x\":0.2540168324407039,\"relative-y\":0.4035714285714286,\"relative-x2\":0.2540168324407039,\"relative-y2\":0.4035714285714286,\"elapse-time\":411.81499999947846},{\"relative-x\":0.22035195103289976,\"relative-y\":0.3625,\"relative-x2\":0.22035195103289976,\"relative-y2\":0.3625,\"elapse-time\":492.04000015743077},{\"relative-x\":0.3871461361897475,\"relative-y\":0.39464285714285713,\"relative-x2\":0.3871461361897475,\"relative-y2\":0.39464285714285713,\"elapse-time\":571.5250000357628},{\"relative-x\":0.7130833970925784,\"relative-y\":0.3875,\"relative-x2\":0.7130833970925784,\"relative-y2\":0.3875,\"elapse-time\":649.8550001997501},{\"relative-x\":0.8676358071920428,\"relative-y\":0.4616071428571429,\"relative-x2\":0.8676358071920428,\"relative-y2\":0.4616071428571429,\"elapse-time\":731.9800001569092},{\"relative-x\":0.8140780413159908,\"relative-y\":0.4303571428571429,\"relative-x2\":0.8140780413159908,\"relative-y2\":0.4303571428571429,\"elapse-time\":812.4450000468642},{\"relative-x\":0.8125478194338179,\"relative-y\":0.3964285714285714,\"relative-x2\":0.8125478194338179,\"relative-y2\":0.3964285714285714,\"elapse-time\":892.885000212118},{\"relative-x\":0.8928844682478959,\"relative-y\":0.39107142857142857,\"relative-x2\":0.8928844682478959,\"relative-y2\":0.39107142857142857,\"elapse-time\":970.4500001389533},{\"relative-x\":0.846212700841622,\"relative-y\":0.39732142857142855,\"relative-x2\":0.846212700841622,\"relative-y2\":0.39732142857142855,\"elapse-time\":1049.7650001198053},{\"relative-x\":0.8706962509563887,\"relative-y\":0.5026785714285714,\"relative-x2\":0.8706962509563887,\"relative-y2\":0.5026785714285714,\"elapse-time\":1133.040000218898},{\"relative-x\":0.837796480489671,\"relative-y\":0.5303571428571429,\"relative-x2\":0.837796480489671,\"relative-y2\":0.5303571428571429,\"elapse-time\":1212.1000001206994},{\"relative-x\":0.9640397857689365,\"relative-y\":0.5178571428571429,\"relative-x2\":0.9640397857689365,\"relative-y2\":0.5178571428571429,\"elapse-time\":1293.7249999959022},{\"relative-x\":0.7865340474368784,\"relative-y\":0.3723214285714286,\"relative-x2\":0.7865340474368784,\"relative-y2\":0.3723214285714286,\"elapse-time\":1371.1450002156198},{\"relative-x\":0.7337413925019127,\"relative-y\":0.33482142857142855,\"relative-x2\":0.7337413925019127,\"relative-y2\":0.33482142857142855,\"elapse-time\":1450.2050001174212},{\"relative-x\":0.7214996174445295,\"relative-y\":0.3705357142857143,\"relative-x2\":0.7214996174445295,\"relative-y2\":0.3705357142857143,\"elapse-time\":1532.8350001946092},{\"relative-x\":0.29839326702371843,\"relative-y\":0.4303571428571429,\"relative-x2\":0.29839326702371843,\"relative-y2\":0.4303571428571429,\"elapse-time\":1610.6400000862777},{\"relative-x\":0.23565416985462892,\"relative-y\":0.5339285714285714,\"relative-x2\":0.23565416985462892,\"relative-y2\":0.5339285714285714,\"elapse-time\":1690.7450000289828},{\"relative-x\":0.15378729915837797,\"relative-y\":0.39375,\"relative-x2\":0.15378729915837797,\"relative-y2\":0.39375,\"elapse-time\":1772.4850000813603},{\"relative-x\":0.15761285386381024,\"relative-y\":0.3419642857142857,\"relative-x2\":0.15761285386381024,\"relative-y2\":0.3419642857142857,\"elapse-time\":1849.8300001956522},{\"relative-x\":0.1514919663351186,\"relative-y\":0.4,\"relative-x2\":0.1514919663351186,\"relative-y2\":0.4,\"elapse-time\":1933.0950002186},{\"relative-x\":0.0772762050497322,\"relative-y\":0.3821428571428571,\"relative-x2\":0.0772762050497322,\"relative-y2\":0.3821428571428571,\"elapse-time\":2012.150000082329},{\"relative-x\":0.019892884468247895,\"relative-y\":0.3892857142857143,\"relative-x2\":0.019892884468247895,\"relative-y2\":0.3892857142857143,\"elapse-time\":2092.2900000587106},{\"relative-x\":0.15761285386381024,\"relative-y\":0.36875,\"relative-x2\":0.15761285386381024,\"relative-y2\":0.36875,\"elapse-time\":2170.5400000791997},{\"relative-x\":0.12012241775057383,\"relative-y\":0.3455357142857143,\"relative-x2\":0.12012241775057383,\"relative-y2\":0.3455357142857143,\"elapse-time\":2249.9050002079457},{\"relative-x\":0.10482019892884469,\"relative-y\":0.4758928571428571,\"relative-x2\":0.10482019892884469,\"relative-y2\":0.4758928571428571,\"elapse-time\":2342.265000101179},{\"relative-x\":0.08416220351951033,\"relative-y\":0.35982142857142857,\"relative-x2\":0.08416220351951033,\"relative-y2\":0.35982142857142857,\"elapse-time\":2412.3949999921024},{\"relative-x\":0.029839326702371844,\"relative-y\":0.3580357142857143,\"relative-x2\":0.029839326702371844,\"relative-y2\":0.3580357142857143,\"elapse-time\":2492.320000194013},{\"relative-x\":0.11323641928079571,\"relative-y\":0.4758928571428571,\"relative-x2\":0.11323641928079571,\"relative-y2\":0.4758928571428571,\"elapse-time\":2572.4300001747906},{\"relative-x\":0.06426931905126243,\"relative-y\":0.48125,\"relative-x2\":0.06426931905126243,\"relative-y2\":0.48125,\"elapse-time\":2650.11000004597},{\"relative-x\":0.046671767406273906,\"relative-y\":0.43660714285714286,\"relative-x2\":0.046671767406273906,\"relative-y2\":0.43660714285714286,\"elapse-time\":2733.57000015676}]}","realtrial":true,"trial_type":"binary-choice","trial_index":175,"time_elapsed":477523,"internal_node_id":"0.0-16.16-2.16","browser_name":"Chrome","browser_type":"85.0","subject":"e2tp9d4","interaction":"[]","windowWidth":1307,"windowHight":1120},{"rt":null,"stimulus":"<span id=\"calibration_dot_instruction\"></span>","key_press":null,"trial_type":"html-keyboard-response","trial_index":176,"time_elapsed":478028,"internal_node_id":"0.0-16.17-1.17-0.17","browser_name":"Chrome","browser_type":"85.0","subject":"e2tp9d4","interaction":"[]","windowWidth":1307,"windowHight":1120},{"stimulus":["../img/FoodImages/foodStimulus_41.jpg","../img/FoodImages/foodStimulus_6.jpg"],"left_stimulus":"../img/FoodImages/foodStimulus_41.jpg","right_stimulus":"../img/FoodImages/foodStimulus_6.jpg","rt":2332.7300001401454,"key_press":74,"choices":["F","J"],"eyeData":"{\"history\":[{\"relative-x\":0.6901300688599847,\"relative-y\":0.4928571428571429,\"relative-x2\":0.6901300688599847,\"relative-y2\":0.4928571428571429,\"elapse-time\":92.84500009380281},{\"relative-x\":0.45830145371078806,\"relative-y\":0.45982142857142855,\"relative-x2\":0.45830145371078806,\"relative-y2\":0.45982142857142855,\"elapse-time\":172.31500009074807},{\"relative-x\":0.5263963274674828,\"relative-y\":0.4642857142857143,\"relative-x2\":0.5263963274674828,\"relative-y2\":0.4642857142857143,\"elapse-time\":253.2700002193451},{\"relative-x\":0.49655700076511095,\"relative-y\":0.4928571428571429,\"relative-x2\":0.49655700076511095,\"relative-y2\":0.4928571428571429,\"elapse-time\":331.8000000435859},{\"relative-x\":0.7895944912012242,\"relative-y\":0.40714285714285714,\"relative-x2\":0.7895944912012242,\"relative-y2\":0.40714285714285714,\"elapse-time\":409.4200001563877},{\"relative-x\":0.7712318286151492,\"relative-y\":0.36339285714285713,\"relative-x2\":0.7712318286151492,\"relative-y2\":0.36339285714285713,\"elapse-time\":493.75500017777085},{\"relative-x\":0.7436878347360367,\"relative-y\":0.39107142857142857,\"relative-x2\":0.7436878347360367,\"relative-y2\":0.39107142857142857,\"elapse-time\":571.6750000137836},{\"relative-x\":0.836266258607498,\"relative-y\":0.46785714285714286,\"relative-x2\":0.836266258607498,\"relative-y2\":0.46785714285714286,\"elapse-time\":651.1800000444055},{\"relative-x\":0.7505738332058148,\"relative-y\":0.4375,\"relative-x2\":0.7505738332058148,\"relative-y2\":0.4375,\"elapse-time\":732.8500000294298},{\"relative-x\":0.6962509563886764,\"relative-y\":0.4107142857142857,\"relative-x2\":0.6962509563886764,\"relative-y2\":0.4107142857142857,\"elapse-time\":809.5000002067536},{\"relative-x\":0.8056618209640398,\"relative-y\":0.41964285714285715,\"relative-x2\":0.8056618209640398,\"relative-y2\":0.41964285714285715,\"elapse-time\":894.5800000801682},{\"relative-x\":0.5631216526396328,\"relative-y\":0.40267857142857144,\"relative-x2\":0.5631216526396328,\"relative-y2\":0.40267857142857144,\"elapse-time\":973.0400000698864},{\"relative-x\":0.2754399387911247,\"relative-y\":0.3794642857142857,\"relative-x2\":0.2754399387911247,\"relative-y2\":0.3794642857142857,\"elapse-time\":1052.5350000243634},{\"relative-x\":0.21423106350420812,\"relative-y\":0.39285714285714285,\"relative-x2\":0.21423106350420812,\"relative-y2\":0.39285714285714285,\"elapse-time\":1132.0700000505894},{\"relative-x\":0.1981637337413925,\"relative-y\":0.37142857142857144,\"relative-x2\":0.1981637337413925,\"relative-y2\":0.37142857142857144,\"elapse-time\":1209.6450000535697},{\"relative-x\":0.17597551644988524,\"relative-y\":0.36428571428571427,\"relative-x2\":0.17597551644988524,\"relative-y2\":0.36428571428571427,\"elapse-time\":1291.3450000341982},{\"relative-x\":0.15837796480489671,\"relative-y\":0.3392857142857143,\"relative-x2\":0.15837796480489671,\"relative-y2\":0.3392857142857143,\"elapse-time\":1374.820000026375},{\"relative-x\":0.13925019127773527,\"relative-y\":0.3517857142857143,\"relative-x2\":0.13925019127773527,\"relative-y2\":0.3517857142857143,\"elapse-time\":1449.510000180453},{\"relative-x\":0.19051262433052793,\"relative-y\":0.39107142857142857,\"relative-x2\":0.19051262433052793,\"relative-y2\":0.39107142857142857,\"elapse-time\":1528.92000018619},{\"relative-x\":0.306044376434583,\"relative-y\":0.4714285714285714,\"relative-x2\":0.306044376434583,\"relative-y2\":0.4714285714285714,\"elapse-time\":1609.1400000732392},{\"relative-x\":0.31446059678653404,\"relative-y\":0.42232142857142857,\"relative-x2\":0.31446059678653404,\"relative-y2\":0.42232142857142857,\"elapse-time\":1695.4300000797957},{\"relative-x\":0.7100229533282326,\"relative-y\":0.3964285714285714,\"relative-x2\":0.7100229533282326,\"relative-y2\":0.3964285714285714,\"elapse-time\":1771.195000037551},{\"relative-x\":0.7842387146136189,\"relative-y\":0.38571428571428573,\"relative-x2\":0.7842387146136189,\"relative-y2\":0.38571428571428573,\"elapse-time\":1853.6100001074374},{\"relative-x\":0.8041315990818668,\"relative-y\":0.375,\"relative-x2\":0.8041315990818668,\"relative-y2\":0.375,\"elapse-time\":1931.285000173375},{\"relative-x\":0.8653404743687835,\"relative-y\":0.39732142857142855,\"relative-x2\":0.8653404743687835,\"relative-y2\":0.39732142857142855,\"elapse-time\":2009.1150000225753},{\"relative-x\":0.8867635807192042,\"relative-y\":0.4330357142857143,\"relative-x2\":0.8867635807192042,\"relative-y2\":0.4330357142857143,\"elapse-time\":2091.685000108555},{\"relative-x\":0.8882938026013772,\"relative-y\":0.36160714285714285,\"relative-x2\":0.8882938026013772,\"relative-y2\":0.36160714285714285,\"elapse-time\":2171.385000227019},{\"relative-x\":0.6801836266258607,\"relative-y\":0.42678571428571427,\"relative-x2\":0.6801836266258607,\"relative-y2\":0.42678571428571427,\"elapse-time\":2251.3700001873076},{\"relative-x\":0.6824789594491201,\"relative-y\":0.3339285714285714,\"relative-x2\":0.6824789594491201,\"relative-y2\":0.3339285714285714,\"elapse-time\":2331.2450000084937},{\"relative-x\":0.7735271614384086,\"relative-y\":0.36875,\"relative-x2\":0.7735271614384086,\"relative-y2\":0.36875,\"elapse-time\":2409.165000077337},{\"relative-x\":0.6863045141545524,\"relative-y\":0.4205357142857143,\"relative-x2\":0.6863045141545524,\"relative-y2\":0.4205357142857143,\"elapse-time\":2494.0850001294166},{\"relative-x\":0.7735271614384086,\"relative-y\":0.3767857142857143,\"relative-x2\":0.7735271614384086,\"relative-y2\":0.3767857142857143,\"elapse-time\":2571.3050002232194},{\"relative-x\":0.7498087222647284,\"relative-y\":0.39375,\"relative-x2\":0.7498087222647284,\"relative-y2\":0.39375,\"elapse-time\":2652.65000006184},{\"relative-x\":0.8684009181331293,\"relative-y\":0.3794642857142857,\"relative-x2\":0.8684009181331293,\"relative-y2\":0.3794642857142857,\"elapse-time\":2730.7700000237674},{\"relative-x\":0.8270849273144606,\"relative-y\":0.3848214285714286,\"relative-x2\":0.8270849273144606,\"relative-y2\":0.3848214285714286,\"elapse-time\":2809.6400001086295}]}","realtrial":true,"trial_type":"binary-choice","trial_index":177,"time_elapsed":480863,"internal_node_id":"0.0-16.17-2.17","browser_name":"Chrome","browser_type":"85.0","subject":"e2tp9d4","interaction":"[]","windowWidth":1307,"windowHight":1120},{"rt":null,"stimulus":"<span id=\"calibration_dot_instruction\"></span>","key_press":null,"trial_type":"html-keyboard-response","trial_index":178,"time_elapsed":481364,"internal_node_id":"0.0-16.18-1.18-0.18","browser_name":"Chrome","browser_type":"85.0","subject":"e2tp9d4","interaction":"[]","windowWidth":1307,"windowHight":1120},{"stimulus":["../img/FoodImages/foodStimulus_9.jpg","../img/FoodImages/foodStimulus_45.jpg"],"left_stimulus":"../img/FoodImages/foodStimulus_9.jpg","right_stimulus":"../img/FoodImages/foodStimulus_45.jpg","rt":1062.6099999062717,"key_press":70,"choices":["F","J"],"eyeData":"{\"history\":[{\"relative-x\":0.43305279265493496,\"relative-y\":0.35714285714285715,\"relative-x2\":0.43305279265493496,\"relative-y2\":0.35714285714285715,\"elapse-time\":92.5199999473989},{\"relative-x\":0.4338179035960214,\"relative-y\":0.3142857142857143,\"relative-x2\":0.4338179035960214,\"relative-y2\":0.3142857142857143,\"elapse-time\":170.21499993279576},{\"relative-x\":0.4177505738332058,\"relative-y\":0.3678571428571429,\"relative-x2\":0.4177505738332058,\"relative-y2\":0.3678571428571429,\"elapse-time\":251.70999998226762},{\"relative-x\":0.4384085692425402,\"relative-y\":0.3669642857142857,\"relative-x2\":0.4384085692425402,\"relative-y2\":0.3669642857142857,\"elapse-time\":333.4500000346452},{\"relative-x\":0.22188217291507267,\"relative-y\":0.4142857142857143,\"relative-x2\":0.22188217291507267,\"relative-y2\":0.4142857142857143,\"elapse-time\":410.3649999015033},{\"relative-x\":0.13236419280795717,\"relative-y\":0.41785714285714287,\"relative-x2\":0.13236419280795717,\"relative-y2\":0.41785714285714287,\"elapse-time\":492.094999877736},{\"relative-x\":0.7674062739097169,\"relative-y\":0.44375,\"relative-x2\":0.7674062739097169,\"relative-y2\":0.44375,\"elapse-time\":572.249999968335},{\"relative-x\":0.8668706962509564,\"relative-y\":0.42142857142857143,\"relative-x2\":0.8668706962509564,\"relative-y2\":0.42142857142857143,\"elapse-time\":650.0249998643994},{\"relative-x\":0.8171384850803366,\"relative-y\":0.44285714285714284,\"relative-x2\":0.8171384850803366,\"relative-y2\":0.44285714285714284,\"elapse-time\":732.5349999591708},{\"relative-x\":0.7880642693190513,\"relative-y\":0.43214285714285716,\"relative-x2\":0.7880642693190513,\"relative-y2\":0.43214285714285716,\"elapse-time\":810.4399999137968},{\"relative-x\":0.7536342769701607,\"relative-y\":0.43660714285714286,\"relative-x2\":0.7536342769701607,\"relative-y2\":0.43660714285714286,\"elapse-time\":893.3149999938905},{\"relative-x\":0.20811017597551645,\"relative-y\":0.35,\"relative-x2\":0.20811017597551645,\"relative-y2\":0.35,\"elapse-time\":971.3699999265373},{\"relative-x\":0.10711553175210406,\"relative-y\":0.3419642857142857,\"relative-x2\":0.10711553175210406,\"relative-y2\":0.3419642857142857,\"elapse-time\":1051.5699998941272},{\"relative-x\":0.08416220351951033,\"relative-y\":0.34375,\"relative-x2\":0.08416220351951033,\"relative-y2\":0.34375,\"elapse-time\":1140.1799998711795},{\"relative-x\":0.1530221882172915,\"relative-y\":0.38839285714285715,\"relative-x2\":0.1530221882172915,\"relative-y2\":0.38839285714285715,\"elapse-time\":1213.149999966845},{\"relative-x\":0.0971690895179801,\"relative-y\":0.31785714285714284,\"relative-x2\":0.0971690895179801,\"relative-y2\":0.31785714285714284,\"elapse-time\":1292.4999999813735},{\"relative-x\":0.10405508798775823,\"relative-y\":0.3776785714285714,\"relative-x2\":0.10405508798775823,\"relative-y2\":0.3776785714285714,\"elapse-time\":1370.8399999886751},{\"relative-x\":0.11017597551644988,\"relative-y\":0.49375,\"relative-x2\":0.11017597551644988,\"relative-y2\":0.49375,\"elapse-time\":1450.345000019297},{\"relative-x\":0.17750573833205815,\"relative-y\":0.4758928571428571,\"relative-x2\":0.17750573833205815,\"relative-y2\":0.4758928571428571,\"elapse-time\":1530.6100000161678}]}","realtrial":true,"trial_type":"binary-choice","trial_index":179,"time_elapsed":482928,"internal_node_id":"0.0-16.18-2.18","browser_name":"Chrome","browser_type":"85.0","subject":"e2tp9d4","interaction":"[]","windowWidth":1307,"windowHight":1120},{"rt":null,"stimulus":"<span id=\"calibration_dot_instruction\"></span>","key_press":null,"trial_type":"html-keyboard-response","trial_index":180,"time_elapsed":483429,"internal_node_id":"0.0-16.19-1.19-0.19","browser_name":"Chrome","browser_type":"85.0","subject":"e2tp9d4","interaction":"[]","windowWidth":1307,"windowHight":1120},{"stimulus":["../img/FoodImages/foodStimulus_9.jpg","../img/FoodImages/foodStimulus_24.jpg"],"left_stimulus":"../img/FoodImages/foodStimulus_9.jpg","right_stimulus":"../img/FoodImages/foodStimulus_24.jpg","rt":1099.5700000785291,"key_press":74,"choices":["F","J"],"eyeData":"{\"history\":[{\"relative-x\":0.5065034429992349,\"relative-y\":0.32589285714285715,\"relative-x2\":0.5065034429992349,\"relative-y2\":0.32589285714285715,\"elapse-time\":93.36000005714595},{\"relative-x\":0.4904361132364193,\"relative-y\":0.31607142857142856,\"relative-x2\":0.4904361132364193,\"relative-y2\":0.31607142857142856,\"elapse-time\":170.3250000718981},{\"relative-x\":0.4108645753634277,\"relative-y\":0.35714285714285715,\"relative-x2\":0.4108645753634277,\"relative-y2\":0.35714285714285715,\"elapse-time\":250.38500013761222},{\"relative-x\":0.5087987758224942,\"relative-y\":0.3848214285714286,\"relative-x2\":0.5087987758224942,\"relative-y2\":0.3848214285714286,\"elapse-time\":335.7850001193583},{\"relative-x\":0.8370313695485846,\"relative-y\":0.35,\"relative-x2\":0.8370313695485846,\"relative-y2\":0.35,\"elapse-time\":412.80000004917383},{\"relative-x\":1.0405508798775822,\"relative-y\":0.40625,\"relative-x2\":1.0405508798775822,\"relative-y2\":0.40625,\"elapse-time\":494.0550001338124},{\"relative-x\":0.9234889058913542,\"relative-y\":0.3982142857142857,\"relative-x2\":0.9234889058913542,\"relative-y2\":0.3982142857142857,\"elapse-time\":569.5450000930578},{\"relative-x\":0.9303749043611323,\"relative-y\":0.28660714285714284,\"relative-x2\":0.9303749043611323,\"relative-y2\":0.28660714285714284,\"elapse-time\":650.9300000034273},{\"relative-x\":0.9563886763580719,\"relative-y\":0.28035714285714286,\"relative-x2\":0.9563886763580719,\"relative-y2\":0.28035714285714286,\"elapse-time\":735.0200000219047},{\"relative-x\":0.37796480489671,\"relative-y\":0.44821428571428573,\"relative-x2\":0.37796480489671,\"relative-y2\":0.44821428571428573,\"elapse-time\":814.3450000789016},{\"relative-x\":0.19357306809487376,\"relative-y\":0.4142857142857143,\"relative-x2\":0.19357306809487376,\"relative-y2\":0.4142857142857143,\"elapse-time\":893.2450001593679},{\"relative-x\":0.2394797245600612,\"relative-y\":0.5196428571428572,\"relative-x2\":0.2394797245600612,\"relative-y2\":0.5196428571428572,\"elapse-time\":970.4150001052767},{\"relative-x\":0.3955623565416985,\"relative-y\":0.4205357142857143,\"relative-x2\":0.3955623565416985,\"relative-y2\":0.4205357142857143,\"elapse-time\":1051.3850001152605},{\"relative-x\":0.7597551644988524,\"relative-y\":0.4330357142857143,\"relative-x2\":0.7597551644988524,\"relative-y2\":0.4330357142857143,\"elapse-time\":1140.0850000791252},{\"relative-x\":0.7291507268553941,\"relative-y\":0.3535714285714286,\"relative-x2\":0.7291507268553941,\"relative-y2\":0.3535714285714286,\"elapse-time\":1212.1749999932945},{\"relative-x\":0.8148431522570773,\"relative-y\":0.29196428571428573,\"relative-x2\":0.8148431522570773,\"relative-y2\":0.29196428571428573,\"elapse-time\":1293.569999979809},{\"relative-x\":0.8768171384850804,\"relative-y\":0.3705357142857143,\"relative-x2\":0.8768171384850804,\"relative-y2\":0.3705357142857143,\"elapse-time\":1370.6549999769777},{\"relative-x\":0.8798775822494261,\"relative-y\":0.38571428571428573,\"relative-x2\":0.8798775822494261,\"relative-y2\":0.38571428571428573,\"elapse-time\":1451.13499998115},{\"relative-x\":0.8775822494261668,\"relative-y\":0.39107142857142857,\"relative-x2\":0.8775822494261668,\"relative-y2\":0.39107142857142857,\"elapse-time\":1535.9650000464171}]}","realtrial":true,"trial_type":"binary-choice","trial_index":181,"time_elapsed":485031,"internal_node_id":"0.0-16.19-2.19","browser_name":"Chrome","browser_type":"85.0","subject":"e2tp9d4","interaction":"[]","windowWidth":1307,"windowHight":1120},{"validationPoints":"[{\"x\":\"20%\",\"y\":\"50%\",\"valid\":true,\"hitRatio\":0.9727272727272728},{\"x\":\"20%\",\"y\":\"80%\",\"valid\":true,\"hitRatio\":0.8389830508474576},{\"x\":\"50%\",\"y\":\"50%\",\"valid\":true,\"hitRatio\":0.9333333333333333}]","accuracy":1,"trial_type":"eye-tracking","trial_index":182,"time_elapsed":495066,"internal_node_id":"0.0-16.20-0.20-0.20","browser_name":"Chrome","browser_type":"85.0","subject":"e2tp9d4","interaction":"[]","windowWidth":1307,"windowHight":1120},{"stimulus":["../img/FoodImages/foodStimulus_41.jpg","../img/FoodImages/foodStimulus_3.jpg"],"left_stimulus":"../img/FoodImages/foodStimulus_41.jpg","right_stimulus":"../img/FoodImages/foodStimulus_3.jpg","rt":374.19999996200204,"key_press":70,"choices":["F","J"],"eyeData":"{\"history\":[{\"relative-x\":0.4957918898240245,\"relative-y\":0.5232142857142857,\"relative-x2\":0.4957918898240245,\"relative-y2\":0.5232142857142857,\"elapse-time\":91.59499988891184},{\"relative-x\":0.44912012241775057,\"relative-y\":0.46339285714285716,\"relative-x2\":0.44912012241775057,\"relative-y2\":0.46339285714285716,\"elapse-time\":173.68999985046685},{\"relative-x\":0.5409334353481254,\"relative-y\":0.4785714285714286,\"relative-x2\":0.5409334353481254,\"relative-y2\":0.4785714285714286,\"elapse-time\":252.56499997340143},{\"relative-x\":0.45371078806426934,\"relative-y\":0.45535714285714285,\"relative-x2\":0.45371078806426934,\"relative-y2\":0.45535714285714285,\"elapse-time\":329.1299999691546},{\"relative-x\":0.24560061208875286,\"relative-y\":0.4419642857142857,\"relative-x2\":0.24560061208875286,\"relative-y2\":0.4419642857142857,\"elapse-time\":421.1049999576062},{\"relative-x\":0.23565416985462892,\"relative-y\":0.39464285714285713,\"relative-x2\":0.23565416985462892,\"relative-y2\":0.39464285714285713,\"elapse-time\":491.6899998206645},{\"relative-x\":0.324407039020658,\"relative-y\":0.3107142857142857,\"relative-x2\":0.324407039020658,\"relative-y2\":0.3107142857142857,\"elapse-time\":571.7599999625236},{\"relative-x\":0.20734506503442998,\"relative-y\":0.39464285714285713,\"relative-x2\":0.20734506503442998,\"relative-y2\":0.39464285714285713,\"elapse-time\":649.6899998746812},{\"relative-x\":0.20657995409334354,\"relative-y\":0.4616071428571429,\"relative-x2\":0.20657995409334354,\"relative-y2\":0.4616071428571429,\"elapse-time\":730.1099998876452},{\"relative-x\":0.3703136954858455,\"relative-y\":0.3991071428571429,\"relative-x2\":0.3703136954858455,\"relative-y2\":0.3991071428571429,\"elapse-time\":812.9549999721348}]}","realtrial":true,"trial_type":"binary-choice","trial_index":183,"time_elapsed":495944,"internal_node_id":"0.0-16.20-2.20","browser_name":"Chrome","browser_type":"85.0","subject":"e2tp9d4","interaction":"[]","windowWidth":1307,"windowHight":1120},{"rt":null,"stimulus":"<span id=\"calibration_dot_instruction\"></span>","key_press":null,"trial_type":"html-keyboard-response","trial_index":184,"time_elapsed":496445,"internal_node_id":"0.0-16.21-1.21-0.21","browser_name":"Chrome","browser_type":"85.0","subject":"e2tp9d4","interaction":"[]","windowWidth":1307,"windowHight":1120},{"stimulus":["../img/FoodImages/foodStimulus_28.jpg","../img/FoodImages/foodStimulus_42.jpg"],"left_stimulus":"../img/FoodImages/foodStimulus_28.jpg","right_stimulus":"../img/FoodImages/foodStimulus_42.jpg","rt":951.5599999576807,"key_press":74,"choices":["F","J"],"eyeData":"{\"history\":[{\"relative-x\":0.3802601377199694,\"relative-y\":0.43839285714285714,\"relative-x2\":0.3802601377199694,\"relative-y2\":0.43839285714285714,\"elapse-time\":92.04000001773238},{\"relative-x\":0.5638867635807192,\"relative-y\":0.40625,\"relative-x2\":0.5638867635807192,\"relative-y2\":0.40625,\"elapse-time\":170.4100000206381},{\"relative-x\":0.4483550114766641,\"relative-y\":0.46339285714285716,\"relative-x2\":0.4483550114766641,\"relative-y2\":0.46339285714285716,\"elapse-time\":250.4750001244247},{\"relative-x\":0.46901300688599845,\"relative-y\":0.36339285714285713,\"relative-x2\":0.46901300688599845,\"relative-y2\":0.36339285714285713,\"elapse-time\":332.9200001899153},{\"relative-x\":0.8538638102524866,\"relative-y\":0.3794642857142857,\"relative-x2\":0.8538638102524866,\"relative-y2\":0.3794642857142857,\"elapse-time\":411.6250001825392},{\"relative-x\":0.7834736036725325,\"relative-y\":0.26875,\"relative-x2\":0.7834736036725325,\"relative-y2\":0.26875,\"elapse-time\":489.83000009320676},{\"relative-x\":0.8270849273144606,\"relative-y\":0.36339285714285713,\"relative-x2\":0.8270849273144606,\"relative-y2\":0.36339285714285713,\"elapse-time\":571.4850001968443},{\"relative-x\":0.8133129303749044,\"relative-y\":0.34017857142857144,\"relative-x2\":0.8133129303749044,\"relative-y2\":0.34017857142857144,\"elapse-time\":649.9400001484901},{\"relative-x\":0.8592195868400918,\"relative-y\":0.36875,\"relative-x2\":0.8592195868400918,\"relative-y2\":0.36875,\"elapse-time\":733.1600000616163},{\"relative-x\":0.7069625095638867,\"relative-y\":0.5196428571428572,\"relative-x2\":0.7069625095638867,\"relative-y2\":0.5196428571428572,\"elapse-time\":811.8549999780953},{\"relative-x\":0.32364192807957154,\"relative-y\":0.40982142857142856,\"relative-x2\":0.32364192807957154,\"relative-y2\":0.40982142857142856,\"elapse-time\":892.1150001697242},{\"relative-x\":0.16679418515684774,\"relative-y\":0.32142857142857145,\"relative-x2\":0.16679418515684774,\"relative-y2\":0.32142857142857145,\"elapse-time\":976.340000052005},{\"relative-x\":0.42846212700841624,\"relative-y\":0.3267857142857143,\"relative-x2\":0.42846212700841624,\"relative-y2\":0.3267857142857143,\"elapse-time\":1050.1250000670552},{\"relative-x\":0.9204284621270085,\"relative-y\":0.30625,\"relative-x2\":0.9204284621270085,\"relative-y2\":0.30625,\"elapse-time\":1132.4299999978393},{\"relative-x\":0.730680948737567,\"relative-y\":0.39732142857142855,\"relative-x2\":0.730680948737567,\"relative-y2\":0.39732142857142855,\"elapse-time\":1211.915000109002},{\"relative-x\":0.8760520275439939,\"relative-y\":0.2857142857142857,\"relative-x2\":0.8760520275439939,\"relative-y2\":0.2857142857142857,\"elapse-time\":1292.5650000106543},{\"relative-x\":0.7980107115531752,\"relative-y\":0.39732142857142855,\"relative-x2\":0.7980107115531752,\"relative-y2\":0.39732142857142855,\"elapse-time\":1372.8750001173466},{\"relative-x\":0.764345830145371,\"relative-y\":0.4080357142857143,\"relative-x2\":0.764345830145371,\"relative-y2\":0.4080357142857143,\"elapse-time\":1449.6150000486523}]}","realtrial":true,"trial_type":"binary-choice","trial_index":185,"time_elapsed":497898,"internal_node_id":"0.0-16.21-2.21","browser_name":"Chrome","browser_type":"85.0","subject":"e2tp9d4","interaction":"[]","windowWidth":1307,"windowHight":1120},{"rt":null,"stimulus":"<span id=\"calibration_dot_instruction\"></span>","key_press":null,"trial_type":"html-keyboard-response","trial_index":186,"time_elapsed":498399,"internal_node_id":"0.0-16.22-1.22-0.22","browser_name":"Chrome","browser_type":"85.0","subject":"e2tp9d4","interaction":"[]","windowWidth":1307,"windowHight":1120},{"stimulus":["../img/FoodImages/foodStimulus_28.jpg","../img/FoodImages/foodStimulus_32.jpg"],"left_stimulus":"../img/FoodImages/foodStimulus_28.jpg","right_stimulus":"../img/FoodImages/foodStimulus_32.jpg","rt":892.9349998943508,"key_press":70,"choices":["F","J"],"eyeData":"{\"history\":[{\"relative-x\":0.5592960979342004,\"relative-y\":0.5348214285714286,\"relative-x2\":0.5592960979342004,\"relative-y2\":0.5348214285714286,\"elapse-time\":91.21500002220273},{\"relative-x\":0.4292272379495027,\"relative-y\":0.47946428571428573,\"relative-x2\":0.4292272379495027,\"relative-y2\":0.47946428571428573,\"elapse-time\":172.70500003360212},{\"relative-x\":0.4797245600612089,\"relative-y\":0.4205357142857143,\"relative-x2\":0.4797245600612089,\"relative-y2\":0.4205357142857143,\"elapse-time\":252.45500006712973},{\"relative-x\":0.5118592195868401,\"relative-y\":0.4044642857142857,\"relative-x2\":0.5118592195868401,\"relative-y2\":0.4044642857142857,\"elapse-time\":329.6999998856336},{\"relative-x\":0.2433052792654935,\"relative-y\":0.45357142857142857,\"relative-x2\":0.2433052792654935,\"relative-y2\":0.45357142857142857,\"elapse-time\":413.569999858737},{\"relative-x\":0.13083397092578425,\"relative-y\":0.3723214285714286,\"relative-x2\":0.13083397092578425,\"relative-y2\":0.3723214285714286,\"elapse-time\":491.6250000242144},{\"relative-x\":0.6557000765110941,\"relative-y\":0.41517857142857145,\"relative-x2\":0.6557000765110941,\"relative-y2\":0.41517857142857145,\"elapse-time\":571.8350000679493},{\"relative-x\":0.7023718439173681,\"relative-y\":0.35982142857142857,\"relative-x2\":0.7023718439173681,\"relative-y2\":0.35982142857142857,\"elapse-time\":651.7849999945611},{\"relative-x\":0.8768171384850804,\"relative-y\":0.4303571428571429,\"relative-x2\":0.8768171384850804,\"relative-y2\":0.4303571428571429,\"elapse-time\":730.0350000150502},{\"relative-x\":0.9808722264728386,\"relative-y\":0.33035714285714285,\"relative-x2\":0.9808722264728386,\"relative-y2\":0.33035714285714285,\"elapse-time\":813.6799999047071},{\"relative-x\":0.856159143075746,\"relative-y\":0.3580357142857143,\"relative-x2\":0.856159143075746,\"relative-y2\":0.3580357142857143,\"elapse-time\":891.4949998725206},{\"relative-x\":0.3863810252486611,\"relative-y\":0.37142857142857144,\"relative-x2\":0.3863810252486611,\"relative-y2\":0.37142857142857144,\"elapse-time\":970.9349998738617},{\"relative-x\":0.21499617444529456,\"relative-y\":0.3919642857142857,\"relative-x2\":0.21499617444529456,\"relative-y2\":0.3919642857142857,\"elapse-time\":1053.0949998646975},{\"relative-x\":0.1407804131599082,\"relative-y\":0.3205357142857143,\"relative-x2\":0.1407804131599082,\"relative-y2\":0.3205357142857143,\"elapse-time\":1128.675000043586},{\"relative-x\":0.1675592960979342,\"relative-y\":0.3339285714285714,\"relative-x2\":0.1675592960979342,\"relative-y2\":0.3339285714285714,\"elapse-time\":1214.5199999213219},{\"relative-x\":0.1545524100994644,\"relative-y\":0.43214285714285716,\"relative-x2\":0.1545524100994644,\"relative-y2\":0.43214285714285716,\"elapse-time\":1291.9550000224262},{\"relative-x\":0.4391736801836266,\"relative-y\":0.40625,\"relative-x2\":0.4391736801836266,\"relative-y2\":0.40625,\"elapse-time\":1373.0599998962134}]}","realtrial":true,"trial_type":"binary-choice","trial_index":187,"time_elapsed":499794,"internal_node_id":"0.0-16.22-2.22","browser_name":"Chrome","browser_type":"85.0","subject":"e2tp9d4","interaction":"[]","windowWidth":1307,"windowHight":1120},{"rt":null,"stimulus":"<span id=\"calibration_dot_instruction\"></span>","key_press":null,"trial_type":"html-keyboard-response","trial_index":188,"time_elapsed":500295,"internal_node_id":"0.0-16.23-1.23-0.23","browser_name":"Chrome","browser_type":"85.0","subject":"e2tp9d4","interaction":"[]","windowWidth":1307,"windowHight":1120},{"stimulus":["../img/FoodImages/foodStimulus_28.jpg","../img/FoodImages/foodStimulus_39.jpg"],"left_stimulus":"../img/FoodImages/foodStimulus_28.jpg","right_stimulus":"../img/FoodImages/foodStimulus_39.jpg","rt":800.3150001168251,"key_press":70,"choices":["F","J"],"eyeData":"{\"history\":[{\"relative-x\":0.3771996939556236,\"relative-y\":0.4955357142857143,\"relative-x2\":0.3771996939556236,\"relative-y2\":0.4955357142857143,\"elapse-time\":92.03499997965991},{\"relative-x\":0.39862280030604436,\"relative-y\":0.3919642857142857,\"relative-x2\":0.39862280030604436,\"relative-y2\":0.3919642857142857,\"elapse-time\":170.05499987863004},{\"relative-x\":0.4269319051262433,\"relative-y\":0.38571428571428573,\"relative-x2\":0.4269319051262433,\"relative-y2\":0.38571428571428573,\"elapse-time\":251.84999988414347},{\"relative-x\":0.41009946442234124,\"relative-y\":0.44285714285714284,\"relative-x2\":0.41009946442234124,\"relative-y2\":0.44285714285714284,\"elapse-time\":330.9999997727573},{\"relative-x\":0.6059678653404744,\"relative-y\":0.37410714285714286,\"relative-x2\":0.6059678653404744,\"relative-y2\":0.37410714285714286,\"elapse-time\":414.51999987475574},{\"relative-x\":0.7674062739097169,\"relative-y\":0.4330357142857143,\"relative-x2\":0.7674062739097169,\"relative-y2\":0.4330357142857143,\"elapse-time\":491.94999993778765},{\"relative-x\":0.7337413925019127,\"relative-y\":0.3267857142857143,\"relative-x2\":0.7337413925019127,\"relative-y2\":0.3267857142857143,\"elapse-time\":571.4599997736514},{\"relative-x\":0.8737566947207345,\"relative-y\":0.39464285714285713,\"relative-x2\":0.8737566947207345,\"relative-y2\":0.39464285714285713,\"elapse-time\":654.34499992989},{\"relative-x\":0.2700841622035195,\"relative-y\":0.40625,\"relative-x2\":0.2700841622035195,\"relative-y2\":0.40625,\"elapse-time\":731.3799997791648},{\"relative-x\":0.234123947972456,\"relative-y\":0.38125,\"relative-x2\":0.234123947972456,\"relative-y2\":0.38125,\"elapse-time\":811.0549999400973},{\"relative-x\":0.23335883703136956,\"relative-y\":0.33214285714285713,\"relative-x2\":0.23335883703136956,\"relative-y2\":0.33214285714285713,\"elapse-time\":891.6399998124689},{\"relative-x\":0.2394797245600612,\"relative-y\":0.3107142857142857,\"relative-x2\":0.2394797245600612,\"relative-y2\":0.3107142857142857,\"elapse-time\":969.7849999647588},{\"relative-x\":0.1729150726855394,\"relative-y\":0.42589285714285713,\"relative-x2\":0.1729150726855394,\"relative-y2\":0.42589285714285713,\"elapse-time\":1054.8949998337775},{\"relative-x\":0.1660290742157613,\"relative-y\":0.34017857142857144,\"relative-x2\":0.1660290742157613,\"relative-y2\":0.34017857142857144,\"elapse-time\":1130.5699998047203},{\"relative-x\":0.11935730680948738,\"relative-y\":0.42232142857142857,\"relative-x2\":0.11935730680948738,\"relative-y2\":0.42232142857142857,\"elapse-time\":1213.539999909699},{\"relative-x\":0.7100229533282326,\"relative-y\":0.4276785714285714,\"relative-x2\":0.7100229533282326,\"relative-y2\":0.4276785714285714,\"elapse-time\":1292.064999928698}]}","realtrial":true,"trial_type":"binary-choice","trial_index":189,"time_elapsed":501597,"internal_node_id":"0.0-16.23-2.23","browser_name":"Chrome","browser_type":"85.0","subject":"e2tp9d4","interaction":"[]","windowWidth":1307,"windowHight":1120},{"rt":null,"stimulus":"<span id=\"calibration_dot_instruction\"></span>","key_press":null,"trial_type":"html-keyboard-response","trial_index":190,"time_elapsed":502097,"internal_node_id":"0.0-16.24-1.24-0.24","browser_name":"Chrome","browser_type":"85.0","subject":"e2tp9d4","interaction":"[]","windowWidth":1307,"windowHight":1120},{"stimulus":["../img/FoodImages/foodStimulus_20.jpg","../img/FoodImages/foodStimulus_3.jpg"],"left_stimulus":"../img/FoodImages/foodStimulus_20.jpg","right_stimulus":"../img/FoodImages/foodStimulus_3.jpg","rt":752.610000083223,"key_press":74,"choices":["F","J"],"eyeData":"{\"history\":[{\"relative-x\":0.5707727620504973,\"relative-y\":0.3508928571428571,\"relative-x2\":0.5707727620504973,\"relative-y2\":0.3508928571428571,\"elapse-time\":93.35500001907349},{\"relative-x\":0.6074980872226473,\"relative-y\":0.33125,\"relative-x2\":0.6074980872226473,\"relative-y2\":0.33125,\"elapse-time\":168.95000007934868},{\"relative-x\":0.42157612853863813,\"relative-y\":0.34464285714285714,\"relative-x2\":0.42157612853863813,\"relative-y2\":0.34464285714285714,\"elapse-time\":250.13999990187585},{\"relative-x\":0.5065034429992349,\"relative-y\":0.29732142857142857,\"relative-x2\":0.5065034429992349,\"relative-y2\":0.29732142857142857,\"elapse-time\":330.5099999997765},{\"relative-x\":0.8263198163733741,\"relative-y\":0.3964285714285714,\"relative-x2\":0.8263198163733741,\"relative-y2\":0.3964285714285714,\"elapse-time\":410.6550000142306},{\"relative-x\":0.7842387146136189,\"relative-y\":0.325,\"relative-x2\":0.7842387146136189,\"relative-y2\":0.325,\"elapse-time\":494.1300000064075},{\"relative-x\":0.864575363427697,\"relative-y\":0.28125,\"relative-x2\":0.864575363427697,\"relative-y2\":0.28125,\"elapse-time\":573.7499999813735},{\"relative-x\":0.9150726855394032,\"relative-y\":0.31160714285714286,\"relative-x2\":0.9150726855394032,\"relative-y2\":0.31160714285714286,\"elapse-time\":652.0549999549985},{\"relative-x\":0.28385615914307577,\"relative-y\":0.4660714285714286,\"relative-x2\":0.28385615914307577,\"relative-y2\":0.4660714285714286,\"elapse-time\":730.184999993071},{\"relative-x\":0.14843152257077277,\"relative-y\":0.4303571428571429,\"relative-x2\":0.14843152257077277,\"relative-y2\":0.4303571428571429,\"elapse-time\":811.7150000762194},{\"relative-x\":0.05279265493496557,\"relative-y\":0.3723214285714286,\"relative-x2\":0.05279265493496557,\"relative-y2\":0.3723214285714286,\"elapse-time\":894.5349999703467},{\"relative-x\":0.15608263198163733,\"relative-y\":0.47946428571428573,\"relative-x2\":0.15608263198163733,\"relative-y2\":0.47946428571428573,\"elapse-time\":972.9549998883158},{\"relative-x\":0.7980107115531752,\"relative-y\":0.3776785714285714,\"relative-x2\":0.7980107115531752,\"relative-y2\":0.3776785714285714,\"elapse-time\":1054.065000033006},{\"relative-x\":0.8293802601377199,\"relative-y\":0.3098214285714286,\"relative-x2\":0.8293802601377199,\"relative-y2\":0.3098214285714286,\"elapse-time\":1130.074999993667},{\"relative-x\":0.8837031369548585,\"relative-y\":0.4017857142857143,\"relative-x2\":0.8837031369548585,\"relative-y2\":0.4017857142857143,\"elapse-time\":1213.234999915585}]}","realtrial":true,"trial_type":"binary-choice","trial_index":191,"time_elapsed":503351,"internal_node_id":"0.0-16.24-2.24","browser_name":"Chrome","browser_type":"85.0","subject":"e2tp9d4","interaction":"[]","windowWidth":1307,"windowHight":1120},{"validationPoints":"[{\"x\":\"20%\",\"y\":\"80%\",\"valid\":true,\"hitRatio\":0.7982456140350878},{\"x\":\"50%\",\"y\":\"20%\",\"valid\":true,\"hitRatio\":0.905982905982906},{\"x\":\"50%\",\"y\":\"50%\",\"valid\":true,\"hitRatio\":0.9649122807017544}]","accuracy":1,"trial_type":"eye-tracking","trial_index":192,"time_elapsed":513377,"internal_node_id":"0.0-16.25-0.25-0.25","browser_name":"Chrome","browser_type":"85.0","subject":"e2tp9d4","interaction":"[]","windowWidth":1307,"windowHight":1120},{"stimulus":["../img/FoodImages/foodStimulus_9.jpg","../img/FoodImages/foodStimulus_46.jpg"],"left_stimulus":"../img/FoodImages/foodStimulus_9.jpg","right_stimulus":"../img/FoodImages/foodStimulus_46.jpg","rt":411.1150000244379,"key_press":70,"choices":["F","J"],"eyeData":"{\"history\":[{\"relative-x\":0.39020657995409336,\"relative-y\":0.4544642857142857,\"relative-x2\":0.39020657995409336,\"relative-y2\":0.4544642857142857,\"elapse-time\":92.98499999567866},{\"relative-x\":0.4843152257077276,\"relative-y\":0.4303571428571429,\"relative-x2\":0.4843152257077276,\"relative-y2\":0.4303571428571429,\"elapse-time\":173.04000002332032},{\"relative-x\":0.42387146136189746,\"relative-y\":0.5125,\"relative-x2\":0.42387146136189746,\"relative-y2\":0.5125,\"elapse-time\":250.71500008925796},{\"relative-x\":0.4391736801836266,\"relative-y\":0.41696428571428573,\"relative-x2\":0.4391736801836266,\"relative-y2\":0.41696428571428573,\"elapse-time\":333.37000012397766},{\"relative-x\":0.45830145371078806,\"relative-y\":0.31339285714285714,\"relative-x2\":0.45830145371078806,\"relative-y2\":0.31339285714285714,\"elapse-time\":409.66999996453524},{\"relative-x\":0.8140780413159908,\"relative-y\":0.32142857142857145,\"relative-x2\":0.8140780413159908,\"relative-y2\":0.32142857142857145,\"elapse-time\":489.9699999950826},{\"relative-x\":0.8209640397857689,\"relative-y\":0.4294642857142857,\"relative-x2\":0.8209640397857689,\"relative-y2\":0.4294642857142857,\"elapse-time\":571.3649999815971},{\"relative-x\":0.8324407039020658,\"relative-y\":0.3580357142857143,\"relative-x2\":0.8324407039020658,\"relative-y2\":0.3580357142857143,\"elapse-time\":652.5499999988824},{\"relative-x\":0.8286151491966335,\"relative-y\":0.4205357142857143,\"relative-x2\":0.8286151491966335,\"relative-y2\":0.4205357142857143,\"elapse-time\":732.7300000470132},{\"relative-x\":0.14613618974751338,\"relative-y\":0.46517857142857144,\"relative-x2\":0.14613618974751338,\"relative-y2\":0.46517857142857144,\"elapse-time\":810.8200000133365},{\"relative-x\":0.11247130833970925,\"relative-y\":0.42142857142857143,\"relative-x2\":0.11247130833970925,\"relative-y2\":0.42142857142857143,\"elapse-time\":891.475000185892}]}","realtrial":true,"trial_type":"binary-choice","trial_index":193,"time_elapsed":514291,"internal_node_id":"0.0-16.25-2.25","browser_name":"Chrome","browser_type":"85.0","subject":"e2tp9d4","interaction":"[]","windowWidth":1307,"windowHight":1120},{"rt":null,"stimulus":"<span id=\"calibration_dot_instruction\"></span>","key_press":null,"trial_type":"html-keyboard-response","trial_index":194,"time_elapsed":514792,"internal_node_id":"0.0-16.26-1.26-0.26","browser_name":"Chrome","browser_type":"85.0","subject":"e2tp9d4","interaction":"[]","windowWidth":1307,"windowHight":1120},{"stimulus":["../img/FoodImages/foodStimulus_42.jpg","../img/FoodImages/foodStimulus_32.jpg"],"left_stimulus":"../img/FoodImages/foodStimulus_42.jpg","right_stimulus":"../img/FoodImages/foodStimulus_32.jpg","rt":1649.6300001163036,"key_press":74,"choices":["F","J"],"eyeData":"{\"history\":[{\"relative-x\":0.5118592195868401,\"relative-y\":0.41875,\"relative-x2\":0.5118592195868401,\"relative-y2\":0.41875,\"elapse-time\":91.85500000603497},{\"relative-x\":0.39020657995409336,\"relative-y\":0.40089285714285716,\"relative-x2\":0.39020657995409336,\"relative-y2\":0.40089285714285716,\"elapse-time\":170.0750000309199},{\"relative-x\":0.39020657995409336,\"relative-y\":0.45982142857142855,\"relative-x2\":0.39020657995409336,\"relative-y2\":0.45982142857142855,\"elapse-time\":254.10000002011657},{\"relative-x\":0.5042081101759756,\"relative-y\":0.3517857142857143,\"relative-x2\":0.5042081101759756,\"relative-y2\":0.3517857142857143,\"elapse-time\":331.5149999689311},{\"relative-x\":0.4468247895944912,\"relative-y\":0.4294642857142857,\"relative-x2\":0.4468247895944912,\"relative-y2\":0.4294642857142857,\"elapse-time\":411.7000000551343},{\"relative-x\":0.135424636572303,\"relative-y\":0.41875,\"relative-x2\":0.135424636572303,\"relative-y2\":0.41875,\"elapse-time\":491.1899999715388},{\"relative-x\":0.2754399387911247,\"relative-y\":0.4669642857142857,\"relative-x2\":0.2754399387911247,\"relative-y2\":0.4669642857142857,\"elapse-time\":570.3100000973791},{\"relative-x\":0.14537107880642694,\"relative-y\":0.41696428571428573,\"relative-x2\":0.14537107880642694,\"relative-y2\":0.41696428571428573,\"elapse-time\":654.4550000689924},{\"relative-x\":0.8125478194338179,\"relative-y\":0.39732142857142855,\"relative-x2\":0.8125478194338179,\"relative-y2\":0.39732142857142855,\"elapse-time\":730.7700000237674},{\"relative-x\":0.7000765110941086,\"relative-y\":0.3482142857142857,\"relative-x2\":0.7000765110941086,\"relative-y2\":0.3482142857142857,\"elapse-time\":813.6100000701845},{\"relative-x\":0.8638102524866106,\"relative-y\":0.4232142857142857,\"relative-x2\":0.8638102524866106,\"relative-y2\":0.4232142857142857,\"elapse-time\":892.7100000437349},{\"relative-x\":0.9273144605967866,\"relative-y\":0.45267857142857143,\"relative-x2\":0.9273144605967866,\"relative-y2\":0.45267857142857143,\"elapse-time\":971.7400001827627},{\"relative-x\":0.7192042846212701,\"relative-y\":0.38839285714285715,\"relative-x2\":0.7192042846212701,\"relative-y2\":0.38839285714285715,\"elapse-time\":1053.7400001194328},{\"relative-x\":0.8752869166029075,\"relative-y\":0.26517857142857143,\"relative-x2\":0.8752869166029075,\"relative-y2\":0.26517857142857143,\"elapse-time\":1130.5949999950826},{\"relative-x\":0.6885998469778117,\"relative-y\":0.29642857142857143,\"relative-x2\":0.6885998469778117,\"relative-y2\":0.29642857142857143,\"elapse-time\":1213.2500000298023},{\"relative-x\":0.3114001530221882,\"relative-y\":0.5258928571428572,\"relative-x2\":0.3114001530221882,\"relative-y2\":0.5258928571428572,\"elapse-time\":1291.5100001264364},{\"relative-x\":0.3083397092578424,\"relative-y\":0.5232142857142857,\"relative-x2\":0.3083397092578424,\"relative-y2\":0.5232142857142857,\"elapse-time\":1372.5000000558794},{\"relative-x\":0.27314460596786533,\"relative-y\":0.4035714285714286,\"relative-x2\":0.27314460596786533,\"relative-y2\":0.4035714285714286,\"elapse-time\":1453.734999988228},{\"relative-x\":0.19510328997704668,\"relative-y\":0.42410714285714285,\"relative-x2\":0.19510328997704668,\"relative-y2\":0.42410714285714285,\"elapse-time\":1531.6449999809265},{\"relative-x\":0.6931905126243305,\"relative-y\":0.35535714285714287,\"relative-x2\":0.6931905126243305,\"relative-y2\":0.35535714285714287,\"elapse-time\":1611.3599999807775},{\"relative-x\":0.7199693955623565,\"relative-y\":0.5080357142857143,\"relative-x2\":0.7199693955623565,\"relative-y2\":0.5080357142857143,\"elapse-time\":1701.7050001304597},{\"relative-x\":0.7727620504973222,\"relative-y\":0.51875,\"relative-x2\":0.7727620504973222,\"relative-y2\":0.51875,\"elapse-time\":1775.3050001338124},{\"relative-x\":0.8355011476664116,\"relative-y\":0.40267857142857144,\"relative-x2\":0.8355011476664116,\"relative-y2\":0.40267857142857144,\"elapse-time\":1853.3850000239909},{\"relative-x\":0.8186687069625096,\"relative-y\":0.4419642857142857,\"relative-x2\":0.8186687069625096,\"relative-y2\":0.4419642857142857,\"elapse-time\":1930.3650001529604},{\"relative-x\":0.7398622800306044,\"relative-y\":0.43660714285714286,\"relative-x2\":0.7398622800306044,\"relative-y2\":0.43660714285714286,\"elapse-time\":2010.4050000663847},{\"relative-x\":0.8301453710788065,\"relative-y\":0.4017857142857143,\"relative-x2\":0.8301453710788065,\"relative-y2\":0.4017857142857143,\"elapse-time\":2090.4800000134856}]}","realtrial":true,"trial_type":"binary-choice","trial_index":195,"time_elapsed":516943,"internal_node_id":"0.0-16.26-2.26","browser_name":"Chrome","browser_type":"85.0","subject":"e2tp9d4","interaction":"[]","windowWidth":1307,"windowHight":1120},{"rt":null,"stimulus":"<span id=\"calibration_dot_instruction\"></span>","key_press":null,"trial_type":"html-keyboard-response","trial_index":196,"time_elapsed":517446,"internal_node_id":"0.0-16.27-1.27-0.27","browser_name":"Chrome","browser_type":"85.0","subject":"e2tp9d4","interaction":"[]","windowWidth":1307,"windowHight":1120},{"stimulus":["../img/FoodImages/foodStimulus_16.jpg","../img/FoodImages/foodStimulus_46.jpg"],"left_stimulus":"../img/FoodImages/foodStimulus_16.jpg","right_stimulus":"../img/FoodImages/foodStimulus_46.jpg","rt":279.2650000192225,"key_press":70,"choices":["F","J"],"eyeData":"{\"history\":[{\"relative-x\":0.4361132364192808,\"relative-y\":0.5133928571428571,\"relative-x2\":0.4361132364192808,\"relative-y2\":0.5133928571428571,\"elapse-time\":92.45500015094876},{\"relative-x\":0.5439938791124713,\"relative-y\":0.5357142857142857,\"relative-x2\":0.5439938791124713,\"relative-y2\":0.5357142857142857,\"elapse-time\":170.40499998256564},{\"relative-x\":0.4751338944146901,\"relative-y\":0.5892857142857143,\"relative-x2\":0.4751338944146901,\"relative-y2\":0.5892857142857143,\"elapse-time\":252.13000015355647},{\"relative-x\":0.4659525631216526,\"relative-y\":0.5008928571428571,\"relative-x2\":0.4659525631216526,\"relative-y2\":0.5008928571428571,\"elapse-time\":332.7950001694262},{\"relative-x\":0.23718439173680184,\"relative-y\":0.425,\"relative-x2\":0.23718439173680184,\"relative-y2\":0.425,\"elapse-time\":409.25000002607703},{\"relative-x\":0.20504973221117062,\"relative-y\":0.425,\"relative-x2\":0.20504973221117062,\"relative-y2\":0.425,\"elapse-time\":491.440000012517},{\"relative-x\":0.16832440703902066,\"relative-y\":0.45714285714285713,\"relative-x2\":0.16832440703902066,\"relative-y2\":0.45714285714285713,\"elapse-time\":570.2949999831617},{\"relative-x\":0.18668706962509563,\"relative-y\":0.4758928571428571,\"relative-x2\":0.18668706962509563,\"relative-y2\":0.4758928571428571,\"elapse-time\":651.9600001629442},{\"relative-x\":0.1874521805661821,\"relative-y\":0.41875,\"relative-x2\":0.1874521805661821,\"relative-y2\":0.41875,\"elapse-time\":733.4400000981987}]}","realtrial":true,"trial_type":"binary-choice","trial_index":197,"time_elapsed":518226,"internal_node_id":"0.0-16.27-2.27","browser_name":"Chrome","browser_type":"85.0","subject":"e2tp9d4","interaction":"[]","windowWidth":1307,"windowHight":1120},{"rt":null,"stimulus":"<span id=\"calibration_dot_instruction\"></span>","key_press":null,"trial_type":"html-keyboard-response","trial_index":198,"time_elapsed":518729,"internal_node_id":"0.0-16.28-1.28-0.28","browser_name":"Chrome","browser_type":"85.0","subject":"e2tp9d4","interaction":"[]","windowWidth":1307,"windowHight":1120},{"stimulus":["../img/FoodImages/foodStimulus_11.jpg","../img/FoodImages/foodStimulus_27.jpg"],"left_stimulus":"../img/FoodImages/foodStimulus_11.jpg","right_stimulus":"../img/FoodImages/foodStimulus_27.jpg","rt":1055.6050001177937,"key_press":70,"choices":["F","J"],"eyeData":"{\"history\":[{\"relative-x\":0.46059678653404745,\"relative-y\":0.3625,\"relative-x2\":0.46059678653404745,\"relative-y2\":0.3625,\"elapse-time\":90.01000015996397},{\"relative-x\":0.4039785768936496,\"relative-y\":0.3169642857142857,\"relative-x2\":0.4039785768936496,\"relative-y2\":0.3169642857142857,\"elapse-time\":170.39500013925135},{\"relative-x\":0.38332058148431525,\"relative-y\":0.3517857142857143,\"relative-x2\":0.38332058148431525,\"relative-y2\":0.3517857142857143,\"elapse-time\":254.27499995566905},{\"relative-x\":0.523335883703137,\"relative-y\":0.4357142857142857,\"relative-x2\":0.523335883703137,\"relative-y2\":0.4357142857142857,\"elapse-time\":332.1350000333041},{\"relative-x\":0.4093343534812548,\"relative-y\":0.5169642857142858,\"relative-x2\":0.4093343534812548,\"relative-y2\":0.5169642857142858,\"elapse-time\":413.38000004179776},{\"relative-x\":0.712318286151492,\"relative-y\":0.46339285714285716,\"relative-x2\":0.712318286151492,\"relative-y2\":0.46339285714285716,\"elapse-time\":489.5750000141561},{\"relative-x\":0.7972456006120887,\"relative-y\":0.4133928571428571,\"relative-x2\":0.7972456006120887,\"relative-y2\":0.4133928571428571,\"elapse-time\":572.2799999639392},{\"relative-x\":0.8393267023718439,\"relative-y\":0.45714285714285713,\"relative-x2\":0.8393267023718439,\"relative-y2\":0.45714285714285713,\"elapse-time\":654.2350000236183},{\"relative-x\":0.6817138485080336,\"relative-y\":0.45,\"relative-x2\":0.6817138485080336,\"relative-y2\":0.45,\"elapse-time\":734.3050001654774},{\"relative-x\":0.7712318286151492,\"relative-y\":0.44107142857142856,\"relative-x2\":0.7712318286151492,\"relative-y2\":0.44107142857142856,\"elapse-time\":813.1550000980496},{\"relative-x\":0.20657995409334354,\"relative-y\":0.3723214285714286,\"relative-x2\":0.20657995409334354,\"relative-y2\":0.3723214285714286,\"elapse-time\":890.4800000600517},{\"relative-x\":0.11629686304514154,\"relative-y\":0.2732142857142857,\"relative-x2\":0.11629686304514154,\"relative-y2\":0.2732142857142857,\"elapse-time\":969.9650001712143},{\"relative-x\":0.19357306809487376,\"relative-y\":0.45535714285714285,\"relative-x2\":0.19357306809487376,\"relative-y2\":0.45535714285714285,\"elapse-time\":1054.0100000798702},{\"relative-x\":0.16449885233358838,\"relative-y\":0.42410714285714285,\"relative-x2\":0.16449885233358838,\"relative-y2\":0.42410714285714285,\"elapse-time\":1133.1100000534207},{\"relative-x\":0.5753634276970161,\"relative-y\":0.45267857142857143,\"relative-x2\":0.5753634276970161,\"relative-y2\":0.45267857142857143,\"elapse-time\":1213.1100001279265},{\"relative-x\":0.6870696250956388,\"relative-y\":0.5330357142857143,\"relative-x2\":0.6870696250956388,\"relative-y2\":0.5330357142857143,\"elapse-time\":1290.5749999918044},{\"relative-x\":0.640397857689365,\"relative-y\":0.42589285714285713,\"relative-x2\":0.640397857689365,\"relative-y2\":0.42589285714285713,\"elapse-time\":1370.8049999549985},{\"relative-x\":0.7658760520275439,\"relative-y\":0.42589285714285713,\"relative-x2\":0.7658760520275439,\"relative-y2\":0.42589285714285713,\"elapse-time\":1455.0799999851733},{\"relative-x\":0.7635807192042846,\"relative-y\":0.3080357142857143,\"relative-x2\":0.7635807192042846,\"relative-y2\":0.3080357142857143,\"elapse-time\":1533.8749999646097}]}","realtrial":true,"trial_type":"binary-choice","trial_index":199,"time_elapsed":520287,"internal_node_id":"0.0-16.28-2.28","browser_name":"Chrome","browser_type":"85.0","subject":"e2tp9d4","interaction":"[]","windowWidth":1307,"windowHight":1120}]