[{"stimulus":["../img/FoodImages/foodStimulus_20.jpg","../img/FoodImages/foodStimulus_32.jpg"],"left_stimulus":"../img/FoodImages/foodStimulus_20.jpg","right_stimulus":"../img/FoodImages/foodStimulus_32.jpg","rt":1214.0250001102686,"key_press":70,"choices":["F","J"],"eyeData":"{\"history\":[{\"relative-x\":0.5439938791124713,\"relative-y\":0.45625,\"relative-x2\":0.5439938791124713,\"relative-y2\":0.45625,\"elapse-time\":90.38499998860061},{\"relative-x\":0.4728385615914308,\"relative-y\":0.47410714285714284,\"relative-x2\":0.4728385615914308,\"relative-y2\":0.47410714285714284,\"elapse-time\":172.59500012733042},{\"relative-x\":0.5524100994644223,\"relative-y\":0.4544642857142857,\"relative-x2\":0.5524100994644223,\"relative-y2\":0.4544642857142857,\"elapse-time\":253.4150001592934},{\"relative-x\":0.47666411629686306,\"relative-y\":0.45089285714285715,\"relative-x2\":0.47666411629686306,\"relative-y2\":0.45089285714285715,\"elapse-time\":332.1950000245124},{\"relative-x\":0.37184391736801836,\"relative-y\":0.4625,\"relative-x2\":0.37184391736801836,\"relative-y2\":0.4625,\"elapse-time\":412.8550000023097},{\"relative-x\":0.28538638102524866,\"relative-y\":0.43839285714285714,\"relative-x2\":0.28538638102524866,\"relative-y2\":0.43839285714285714,\"elapse-time\":492.8700001910329},{\"relative-x\":0.315990818668707,\"relative-y\":0.5142857142857142,\"relative-x2\":0.315990818668707,\"relative-y2\":0.5142857142857142,\"elapse-time\":569.4850001018494},{\"relative-x\":0.7750573833205815,\"relative-y\":0.39464285714285713,\"relative-x2\":0.7750573833205815,\"relative-y2\":0.39464285714285713,\"elapse-time\":653.8000002037734},{\"relative-x\":0.6434583014537107,\"relative-y\":0.5276785714285714,\"relative-x2\":0.6434583014537107,\"relative-y2\":0.5276785714285714,\"elapse-time\":732.0000000763685},{\"relative-x\":0.6503442999234889,\"relative-y\":0.45982142857142855,\"relative-x2\":0.6503442999234889,\"relative-y2\":0.45982142857142855,\"elapse-time\":811.9050001259893},{\"relative-x\":0.7888293802601377,\"relative-y\":0.3053571428571429,\"relative-x2\":0.7888293802601377,\"relative-y2\":0.3053571428571429,\"elapse-time\":889.8550001904368},{\"relative-x\":0.801071155317521,\"relative-y\":0.46875,\"relative-x2\":0.801071155317521,\"relative-y2\":0.46875,\"elapse-time\":971.7449999880046},{\"relative-x\":0.8538638102524866,\"relative-y\":0.4089285714285714,\"relative-x2\":0.8538638102524866,\"relative-y2\":0.4089285714285714,\"elapse-time\":1052.305000135675},{\"relative-x\":0.8821729150726856,\"relative-y\":0.45803571428571427,\"relative-x2\":0.8821729150726856,\"relative-y2\":0.45803571428571427,\"elapse-time\":1130.1400000229478},{\"relative-x\":0.3389441469013007,\"relative-y\":0.38125,\"relative-x2\":0.3389441469013007,\"relative-y2\":0.38125,\"elapse-time\":1212.8700001630932},{\"relative-x\":0.22570772762050498,\"relative-y\":0.39017857142857143,\"relative-x2\":0.22570772762050498,\"relative-y2\":0.39017857142857143,\"elapse-time\":1290.745000122115},{\"relative-x\":0.18362662586074982,\"relative-y\":0.4142857142857143,\"relative-x2\":0.18362662586074982,\"relative-y2\":0.4142857142857143,\"elapse-time\":1370.9400000516325},{\"relative-x\":0.16908951798010713,\"relative-y\":0.43125,\"relative-x2\":0.16908951798010713,\"relative-y2\":0.43125,\"elapse-time\":1450.6000000983477},{\"relative-x\":0.3496557000765111,\"relative-y\":0.3991071428571429,\"relative-x2\":0.3496557000765111,\"relative-y2\":0.3991071428571429,\"elapse-time\":1531.4400000497699},{\"relative-x\":0.25478194338179033,\"relative-y\":0.4955357142857143,\"relative-x2\":0.25478194338179033,\"relative-y2\":0.4955357142857143,\"elapse-time\":1611.9900001212955},{\"relative-x\":0.17521040550879877,\"relative-y\":0.44642857142857145,\"relative-x2\":0.17521040550879877,\"relative-y2\":0.44642857142857145,\"elapse-time\":1690.5650000553578}]}","realtrial":true,"trial_type":"binary-choice","trial_index":80,"time_elapsed":228798,"internal_node_id":"0.0-13.5-2.5","browser_name":"Chrome","browser_type":"85.0","subject":"e2tp9d4","interaction":"[]","windowWidth":1307,"windowHight":1120},{"rt":null,"stimulus":"<span id=\"calibration_dot_instruction\"></span>","key_press":null,"trial_type":"html-keyboard-response","trial_index":81,"time_elapsed":229300,"internal_node_id":"0.0-13.6-1.6-0.6","browser_name":"Chrome","browser_type":"85.0","subject":"e2tp9d4","interaction":"[]","windowWidth":1307,"windowHight":1120},{"stimulus":["../img/FoodImages/foodStimulus_31.jpg","../img/FoodImages/foodStimulus_27.jpg"],"left_stimulus":"../img/FoodImages/foodStimulus_31.jpg","right_stimulus":"../img/FoodImages/foodStimulus_27.jpg","rt":431.6100000869483,"key_press":74,"choices":["F","J"],"eyeData":"{\"history\":[{\"relative-x\":0.5210405508798776,\"relative-y\":0.5866071428571429,\"relative-x2\":0.5210405508798776,\"relative-y2\":0.5866071428571429,\"elapse-time\":90.88000003248453},{\"relative-x\":0.5998469778117828,\"relative-y\":0.45,\"relative-x2\":0.5998469778117828,\"relative-y2\":0.45,\"elapse-time\":170.685000019148},{\"relative-x\":0.5753634276970161,\"relative-y\":0.43214285714285716,\"relative-x2\":0.5753634276970161,\"relative-y2\":0.43214285714285716,\"elapse-time\":249.94500004686415},{\"relative-x\":0.5355776587605203,\"relative-y\":0.5053571428571428,\"relative-x2\":0.5355776587605203,\"relative-y2\":0.5053571428571428,\"elapse-time\":335.7299999333918},{\"relative-x\":0.7299158377964805,\"relative-y\":0.44642857142857145,\"relative-x2\":0.7299158377964805,\"relative-y2\":0.44642857142857145,\"elapse-time\":413.0550001282245},{\"relative-x\":0.7368018362662586,\"relative-y\":0.4589285714285714,\"relative-x2\":0.7368018362662586,\"relative-y2\":0.4589285714285714,\"elapse-time\":493.0499999318272},{\"relative-x\":0.8936495791889824,\"relative-y\":0.4330357142857143,\"relative-x2\":0.8936495791889824,\"relative-y2\":0.4330357142857143,\"elapse-time\":570.2549999114126},{\"relative-x\":0.7689364957918898,\"relative-y\":0.4401785714285714,\"relative-x2\":0.7689364957918898,\"relative-y2\":0.4401785714285714,\"elapse-time\":649.974999949336},{\"relative-x\":0.8684009181331293,\"relative-y\":0.425,\"relative-x2\":0.8684009181331293,\"relative-y2\":0.425,\"elapse-time\":731.730000115931},{\"relative-x\":0.8209640397857689,\"relative-y\":0.41875,\"relative-x2\":0.8209640397857689,\"relative-y2\":0.41875,\"elapse-time\":812.3749999795109},{\"relative-x\":0.7635807192042846,\"relative-y\":0.4446428571428571,\"relative-x2\":0.7635807192042846,\"relative-y2\":0.4446428571428571,\"elapse-time\":891.8300000950694}]}","realtrial":true,"trial_type":"binary-choice","trial_index":82,"time_elapsed":230234,"internal_node_id":"0.0-13.6-2.6","browser_name":"Chrome","browser_type":"85.0","subject":"e2tp9d4","interaction":"[]","windowWidth":1307,"windowHight":1120},{"rt":null,"stimulus":"<span id=\"calibration_dot_instruction\"></span>","key_press":null,"trial_type":"html-keyboard-response","trial_index":83,"time_elapsed":230737,"internal_node_id":"0.0-13.7-1.7-0.7","browser_name":"Chrome","browser_type":"85.0","subject":"e2tp9d4","interaction":"[]","windowWidth":1307,"windowHight":1120},{"stimulus":["../img/FoodImages/foodStimulus_6.jpg","../img/FoodImages/foodStimulus_17.jpg"],"left_stimulus":"../img/FoodImages/foodStimulus_6.jpg","right_stimulus":"../img/FoodImages/foodStimulus_17.jpg","rt":1117.50499997288,"key_press":70,"choices":["F","J"],"eyeData":"{\"history\":[{\"relative-x\":0.3871461361897475,\"relative-y\":0.43214285714285716,\"relative-x2\":0.3871461361897475,\"relative-y2\":0.43214285714285716,\"elapse-time\":92.9700001142919},{\"relative-x\":0.3366488140780413,\"relative-y\":0.3892857142857143,\"relative-x2\":0.3366488140780413,\"relative-y2\":0.3892857142857143,\"elapse-time\":172.50500014051795},{\"relative-x\":0.3657230298393267,\"relative-y\":0.36339285714285713,\"relative-x2\":0.3657230298393267,\"relative-y2\":0.36339285714285713,\"elapse-time\":251.21999997645617},{\"relative-x\":0.32364192807957154,\"relative-y\":0.35714285714285715,\"relative-x2\":0.32364192807957154,\"relative-y2\":0.35714285714285715,\"elapse-time\":329.78500006720424},{\"relative-x\":0.23335883703136956,\"relative-y\":0.41696428571428573,\"relative-x2\":0.23335883703136956,\"relative-y2\":0.41696428571428573,\"elapse-time\":415.5699999537319},{\"relative-x\":0.2019892884468248,\"relative-y\":0.40714285714285714,\"relative-x2\":0.2019892884468248,\"relative-y2\":0.40714285714285714,\"elapse-time\":492.45000001974404},{\"relative-x\":0.26778882938026016,\"relative-y\":0.45267857142857143,\"relative-x2\":0.26778882938026016,\"relative-y2\":0.45267857142857143,\"elapse-time\":572.1849999390543},{\"relative-x\":0.7429227237949503,\"relative-y\":0.4607142857142857,\"relative-x2\":0.7429227237949503,\"relative-y2\":0.4607142857142857,\"elapse-time\":650.2400001045316},{\"relative-x\":0.809487375669472,\"relative-y\":0.46875,\"relative-x2\":0.809487375669472,\"relative-y2\":0.46875,\"elapse-time\":730.0450000911951},{\"relative-x\":0.854628921193573,\"relative-y\":0.45625,\"relative-x2\":0.854628921193573,\"relative-y2\":0.45625,\"elapse-time\":816.6700000874698},{\"relative-x\":0.9173680183626626,\"relative-y\":0.4080357142857143,\"relative-x2\":0.9173680183626626,\"relative-y2\":0.4080357142857143,\"elapse-time\":893.015000037849},{\"relative-x\":0.8691660290742158,\"relative-y\":0.3375,\"relative-x2\":0.8691660290742158,\"relative-y2\":0.3375,\"elapse-time\":972.9100000113249},{\"relative-x\":0.2739097169089518,\"relative-y\":0.40982142857142856,\"relative-x2\":0.2739097169089518,\"relative-y2\":0.40982142857142856,\"elapse-time\":1050.844999961555},{\"relative-x\":0.2433052792654935,\"relative-y\":0.4205357142857143,\"relative-x2\":0.2433052792654935,\"relative-y2\":0.4205357142857143,\"elapse-time\":1134.2250001616776},{\"relative-x\":0.19127773527161437,\"relative-y\":0.3875,\"relative-x2\":0.19127773527161437,\"relative-y2\":0.3875,\"elapse-time\":1213.1950000766665},{\"relative-x\":0.18515684774292274,\"relative-y\":0.43839285714285714,\"relative-x2\":0.18515684774292274,\"relative-y2\":0.43839285714285714,\"elapse-time\":1291.4549999404699},{\"relative-x\":0.19739862280030604,\"relative-y\":0.43392857142857144,\"relative-x2\":0.19739862280030604,\"relative-y2\":0.43392857142857144,\"elapse-time\":1372.5100001320243},{\"relative-x\":0.1369548584544759,\"relative-y\":0.4107142857142857,\"relative-x2\":0.1369548584544759,\"relative-y2\":0.4107142857142857,\"elapse-time\":1452.1850000601262},{\"relative-x\":0.12853863810252486,\"relative-y\":0.36607142857142855,\"relative-x2\":0.12853863810252486,\"relative-y2\":0.36607142857142855,\"elapse-time\":1529.9949999898672},{\"relative-x\":0.21652639632746748,\"relative-y\":0.43660714285714286,\"relative-x2\":0.21652639632746748,\"relative-y2\":0.43660714285714286,\"elapse-time\":1612.2950001154095}]}","realtrial":true,"trial_type":"binary-choice","trial_index":84,"time_elapsed":232356,"internal_node_id":"0.0-13.7-2.7","browser_name":"Chrome","browser_type":"85.0","subject":"e2tp9d4","interaction":"[]","windowWidth":1307,"windowHight":1120},{"rt":null,"stimulus":"<span id=\"calibration_dot_instruction\"></span>","key_press":null,"trial_type":"html-keyboard-response","trial_index":85,"time_elapsed":232859,"internal_node_id":"0.0-13.8-1.8-0.8","browser_name":"Chrome","browser_type":"85.0","subject":"e2tp9d4","interaction":"[]","windowWidth":1307,"windowHight":1120},{"stimulus":["../img/FoodImages/foodStimulus_11.jpg","../img/FoodImages/foodStimulus_32.jpg"],"left_stimulus":"../img/FoodImages/foodStimulus_11.jpg","right_stimulus":"../img/FoodImages/foodStimulus_32.jpg","rt":1671.2050000205636,"key_press":70,"choices":["F","J"],"eyeData":"{\"history\":[{\"relative-x\":0.32364192807957154,\"relative-y\":0.51875,\"relative-x2\":0.32364192807957154,\"relative-y2\":0.51875,\"elapse-time\":92.71500003524125},{\"relative-x\":0.541698546289212,\"relative-y\":0.7464285714285714,\"relative-x2\":0.541698546289212,\"relative-y2\":0.7464285714285714,\"elapse-time\":172.42000019177794},{\"relative-x\":0.5646518745218057,\"relative-y\":0.48214285714285715,\"relative-x2\":0.5646518745218057,\"relative-y2\":0.48214285714285715,\"elapse-time\":251.26000004820526},{\"relative-x\":0.5355776587605203,\"relative-y\":0.5633928571428571,\"relative-x2\":0.5355776587605203,\"relative-y2\":0.5633928571428571,\"elapse-time\":332.5950000435114},{\"relative-x\":0.5960214231063504,\"relative-y\":0.49464285714285716,\"relative-x2\":0.5960214231063504,\"relative-y2\":0.49464285714285716,\"elapse-time\":409.47500010952353},{\"relative-x\":0.8622800306044377,\"relative-y\":0.44821428571428573,\"relative-x2\":0.8622800306044377,\"relative-y2\":0.44821428571428573,\"elapse-time\":494.0200001001358},{\"relative-x\":0.8668706962509564,\"relative-y\":0.4875,\"relative-x2\":0.8668706962509564,\"relative-y2\":0.4875,\"elapse-time\":571.0850001778454},{\"relative-x\":0.7681713848508034,\"relative-y\":0.3375,\"relative-x2\":0.7681713848508034,\"relative-y2\":0.3375,\"elapse-time\":652.1700001321733},{\"relative-x\":0.7750573833205815,\"relative-y\":0.42589285714285713,\"relative-x2\":0.7750573833205815,\"relative-y2\":0.42589285714285713,\"elapse-time\":730.9800002258271},{\"relative-x\":0.5409334353481254,\"relative-y\":0.42142857142857143,\"relative-x2\":0.5409334353481254,\"relative-y2\":0.42142857142857143,\"elapse-time\":810.0950000807643},{\"relative-x\":0.19357306809487376,\"relative-y\":0.3580357142857143,\"relative-x2\":0.19357306809487376,\"relative-y2\":0.3580357142857143,\"elapse-time\":893.6900000553578},{\"relative-x\":0.3152257077276205,\"relative-y\":0.42410714285714285,\"relative-x2\":0.3152257077276205,\"relative-y2\":0.42410714285714285,\"elapse-time\":972.3000000230968},{\"relative-x\":0.2899770466717674,\"relative-y\":0.36339285714285713,\"relative-x2\":0.2899770466717674,\"relative-y2\":0.36339285714285713,\"elapse-time\":1050.4350000992417},{\"relative-x\":0.6732976281560826,\"relative-y\":0.39375,\"relative-x2\":0.6732976281560826,\"relative-y2\":0.39375,\"elapse-time\":1131.8150002043694},{\"relative-x\":0.6763580719204285,\"relative-y\":0.4107142857142857,\"relative-x2\":0.6763580719204285,\"relative-y2\":0.4107142857142857,\"elapse-time\":1210.1250002160668},{\"relative-x\":0.7513389441469013,\"relative-y\":0.5214285714285715,\"relative-x2\":0.7513389441469013,\"relative-y2\":0.5214285714285715,\"elapse-time\":1293.4350001160055},{\"relative-x\":0.8171384850803366,\"relative-y\":0.45,\"relative-x2\":0.8171384850803366,\"relative-y2\":0.45,\"elapse-time\":1371.3650000281632},{\"relative-x\":0.6817138485080336,\"relative-y\":0.5223214285714286,\"relative-x2\":0.6817138485080336,\"relative-y2\":0.5223214285714286,\"elapse-time\":1453.7200001068413},{\"relative-x\":0.3978576893649579,\"relative-y\":0.42142857142857143,\"relative-x2\":0.3978576893649579,\"relative-y2\":0.42142857142857143,\"elapse-time\":1531.2400001566857},{\"relative-x\":0.20964039785768937,\"relative-y\":0.4089285714285714,\"relative-x2\":0.20964039785768937,\"relative-y2\":0.4089285714285714,\"elapse-time\":1610.0400001741946},{\"relative-x\":0.2953328232593726,\"relative-y\":0.40625,\"relative-x2\":0.2953328232593726,\"relative-y2\":0.40625,\"elapse-time\":1692.5350001547486},{\"relative-x\":0.2249426166794185,\"relative-y\":0.41875,\"relative-x2\":0.2249426166794185,\"relative-y2\":0.41875,\"elapse-time\":1771.7800000682473},{\"relative-x\":0.17214996174445293,\"relative-y\":0.4348214285714286,\"relative-x2\":0.17214996174445293,\"relative-y2\":0.4348214285714286,\"elapse-time\":1849.0850001107901},{\"relative-x\":0.23335883703136956,\"relative-y\":0.38839285714285715,\"relative-x2\":0.23335883703136956,\"relative-y2\":0.38839285714285715,\"elapse-time\":1931.7850000225008},{\"relative-x\":0.20657995409334354,\"relative-y\":0.49375,\"relative-x2\":0.20657995409334354,\"relative-y2\":0.49375,\"elapse-time\":2008.9750001206994},{\"relative-x\":0.10864575363427698,\"relative-y\":0.35892857142857143,\"relative-x2\":0.10864575363427698,\"relative-y2\":0.35892857142857143,\"elapse-time\":2094.770000083372},{\"relative-x\":0.2394797245600612,\"relative-y\":0.38392857142857145,\"relative-x2\":0.2394797245600612,\"relative-y2\":0.38392857142857145,\"elapse-time\":2171.62000015378}]}","realtrial":true,"trial_type":"binary-choice","trial_index":86,"time_elapsed":235036,"internal_node_id":"0.0-13.8-2.8","browser_name":"Chrome","browser_type":"85.0","subject":"e2tp9d4","interaction":"[]","windowWidth":1307,"windowHight":1120},{"rt":null,"stimulus":"<span id=\"calibration_dot_instruction\"></span>","key_press":null,"trial_type":"html-keyboard-response","trial_index":87,"time_elapsed":235539,"internal_node_id":"0.0-13.9-1.9-0.9","browser_name":"Chrome","browser_type":"85.0","subject":"e2tp9d4","interaction":"[]","windowWidth":1307,"windowHight":1120},{"stimulus":["../img/FoodImages/foodStimulus_28.jpg","../img/FoodImages/foodStimulus_20.jpg"],"left_stimulus":"../img/FoodImages/foodStimulus_28.jpg","right_stimulus":"../img/FoodImages/foodStimulus_20.jpg","rt":1028.4400000236928,"key_press":70,"choices":["F","J"],"eyeData":"{\"history\":[{\"relative-x\":0.5371078806426932,\"relative-y\":0.49375,\"relative-x2\":0.5371078806426932,\"relative-y2\":0.49375,\"elapse-time\":90.54000000469387},{\"relative-x\":0.521805661820964,\"relative-y\":0.42589285714285713,\"relative-x2\":0.521805661820964,\"relative-y2\":0.42589285714285713,\"elapse-time\":171.8500000424683},{\"relative-x\":0.5807192042846213,\"relative-y\":0.4375,\"relative-x2\":0.5807192042846213,\"relative-y2\":0.4375,\"elapse-time\":251.96500006131828},{\"relative-x\":0.48967100229533284,\"relative-y\":0.41517857142857145,\"relative-x2\":0.48967100229533284,\"relative-y2\":0.41517857142857145,\"elapse-time\":333.9000002015382},{\"relative-x\":0.7146136189747513,\"relative-y\":0.45714285714285713,\"relative-x2\":0.7146136189747513,\"relative-y2\":0.45714285714285713,\"elapse-time\":412.8250000067055},{\"relative-x\":0.7941851568477429,\"relative-y\":0.36875,\"relative-x2\":0.7941851568477429,\"relative-y2\":0.36875,\"elapse-time\":491.88000010326505},{\"relative-x\":0.782708492731446,\"relative-y\":0.45803571428571427,\"relative-x2\":0.782708492731446,\"relative-y2\":0.45803571428571427,\"elapse-time\":570.4400001559407},{\"relative-x\":0.8630451415455241,\"relative-y\":0.5151785714285714,\"relative-x2\":0.8630451415455241,\"relative-y2\":0.5151785714285714,\"elapse-time\":652.025000192225},{\"relative-x\":0.5944912012241775,\"relative-y\":0.5491071428571429,\"relative-x2\":0.5944912012241775,\"relative-y2\":0.5491071428571429,\"elapse-time\":729.9850000999868},{\"relative-x\":0.2501912777352716,\"relative-y\":0.46785714285714286,\"relative-x2\":0.2501912777352716,\"relative-y2\":0.46785714285714286,\"elapse-time\":813.0900000687689},{\"relative-x\":0.315990818668707,\"relative-y\":0.45714285714285713,\"relative-x2\":0.315990818668707,\"relative-y2\":0.45714285714285713,\"elapse-time\":892.0200001448393},{\"relative-x\":0.306044376434583,\"relative-y\":0.5089285714285714,\"relative-x2\":0.306044376434583,\"relative-y2\":0.5089285714285714,\"elapse-time\":970.7300001755357},{\"relative-x\":0.270849273144606,\"relative-y\":0.4348214285714286,\"relative-x2\":0.270849273144606,\"relative-y2\":0.4348214285714286,\"elapse-time\":1057.035000063479},{\"relative-x\":0.11247130833970925,\"relative-y\":0.44910714285714287,\"relative-x2\":0.11247130833970925,\"relative-y2\":0.44910714285714287,\"elapse-time\":1129.7000001650304},{\"relative-x\":0.21040550879877581,\"relative-y\":0.4,\"relative-x2\":0.21040550879877581,\"relative-y2\":0.4,\"elapse-time\":1213.3900001645088},{\"relative-x\":0.23488905891354248,\"relative-y\":0.38571428571428573,\"relative-x2\":0.23488905891354248,\"relative-y2\":0.38571428571428573,\"elapse-time\":1291.2600000854582},{\"relative-x\":0.17214996174445293,\"relative-y\":0.4785714285714286,\"relative-x2\":0.17214996174445293,\"relative-y2\":0.4785714285714286,\"elapse-time\":1372.5000000558794},{\"relative-x\":0.12088752869166029,\"relative-y\":0.4044642857142857,\"relative-x2\":0.12088752869166029,\"relative-y2\":0.4044642857142857,\"elapse-time\":1452.7300000190735},{\"relative-x\":0.23794950267788828,\"relative-y\":0.45714285714285713,\"relative-x2\":0.23794950267788828,\"relative-y2\":0.45714285714285713,\"elapse-time\":1529.7450001817197}]}","realtrial":true,"trial_type":"binary-choice","trial_index":88,"time_elapsed":237071,"internal_node_id":"0.0-13.9-2.9","browser_name":"Chrome","browser_type":"85.0","subject":"e2tp9d4","interaction":"[]","windowWidth":1307,"windowHight":1120},{"validationPoints":"[{\"x\":\"80%\",\"y\":\"80%\",\"valid\":true,\"hitRatio\":0.9298245614035088},{\"x\":\"80%\",\"y\":\"20%\",\"valid\":false,\"hitRatio\":0.6422764227642277},{\"x\":\"50%\",\"y\":\"50%\",\"valid\":true,\"hitRatio\":0.875}]","accuracy":0.6666666666666666,"trial_type":"eye-tracking","trial_index":89,"time_elapsed":247121,"internal_node_id":"0.0-13.10-0.10-0.10","browser_name":"Chrome","browser_type":"85.0","subject":"e2tp9d4","interaction":"[]","windowWidth":1307,"windowHight":1120},{"stimulus":["../img/FoodImages/foodStimulus_35.jpg","../img/FoodImages/foodStimulus_32.jpg"],"left_stimulus":"../img/FoodImages/foodStimulus_35.jpg","right_stimulus":"../img/FoodImages/foodStimulus_32.jpg","rt":2214.4299999345094,"key_press":70,"choices":["F","J"],"eyeData":"{\"history\":[{\"relative-x\":0.603672532517215,\"relative-y\":0.4160714285714286,\"relative-x2\":0.603672532517215,\"relative-y2\":0.4160714285714286,\"elapse-time\":92.70499995909631},{\"relative-x\":0.5286916602907421,\"relative-y\":0.4660714285714286,\"relative-x2\":0.5286916602907421,\"relative-y2\":0.4660714285714286,\"elapse-time\":171.67999991215765},{\"relative-x\":0.523335883703137,\"relative-y\":0.4089285714285714,\"relative-x2\":0.523335883703137,\"relative-y2\":0.4089285714285714,\"elapse-time\":257.5449999421835},{\"relative-x\":0.5241009946442234,\"relative-y\":0.46785714285714286,\"relative-x2\":0.5241009946442234,\"relative-y2\":0.46785714285714286,\"elapse-time\":333.6350000463426},{\"relative-x\":0.7811782708492732,\"relative-y\":0.4830357142857143,\"relative-x2\":0.7811782708492732,\"relative-y2\":0.4830357142857143,\"elapse-time\":411.67000005953014},{\"relative-x\":0.8875286916602907,\"relative-y\":0.4705357142857143,\"relative-x2\":0.8875286916602907,\"relative-y2\":0.4705357142857143,\"elapse-time\":491.209999890998},{\"relative-x\":0.8102524866105585,\"relative-y\":0.41696428571428573,\"relative-x2\":0.8102524866105585,\"relative-y2\":0.41696428571428573,\"elapse-time\":572.4549998994917},{\"relative-x\":0.4651874521805662,\"relative-y\":0.3875,\"relative-x2\":0.4651874521805662,\"relative-y2\":0.3875,\"elapse-time\":652.0199999213219},{\"relative-x\":0.28385615914307577,\"relative-y\":0.35625,\"relative-x2\":0.28385615914307577,\"relative-y2\":0.35625,\"elapse-time\":733.585000038147},{\"relative-x\":0.35042081101759753,\"relative-y\":0.38839285714285715,\"relative-x2\":0.35042081101759753,\"relative-y2\":0.38839285714285715,\"elapse-time\":811.9749999605119},{\"relative-x\":0.24407039020657995,\"relative-y\":0.44375,\"relative-x2\":0.24407039020657995,\"relative-y2\":0.44375,\"elapse-time\":891.014999942854},{\"relative-x\":0.31216526396327465,\"relative-y\":0.40714285714285714,\"relative-x2\":0.31216526396327465,\"relative-y2\":0.40714285714285714,\"elapse-time\":969.855000032112},{\"relative-x\":0.1782708492731446,\"relative-y\":0.42232142857142857,\"relative-x2\":0.1782708492731446,\"relative-y2\":0.42232142857142857,\"elapse-time\":1052.4899999145418},{\"relative-x\":0.23106350420811017,\"relative-y\":0.41696428571428573,\"relative-x2\":0.23106350420811017,\"relative-y2\":0.41696428571428573,\"elapse-time\":1132.6949999202043},{\"relative-x\":0.10864575363427698,\"relative-y\":0.38035714285714284,\"relative-x2\":0.10864575363427698,\"relative-y2\":0.38035714285714284,\"elapse-time\":1213.1699998863041},{\"relative-x\":0.14613618974751338,\"relative-y\":0.45089285714285715,\"relative-x2\":0.14613618974751338,\"relative-y2\":0.45089285714285715,\"elapse-time\":1290.210000006482},{\"relative-x\":0.06350420811017597,\"relative-y\":0.43125,\"relative-x2\":0.06350420811017597,\"relative-y2\":0.43125,\"elapse-time\":1370.8299999125302},{\"relative-x\":0.5493496557000765,\"relative-y\":0.4732142857142857,\"relative-x2\":0.5493496557000765,\"relative-y2\":0.4732142857142857,\"elapse-time\":1451.5849999152124},{\"relative-x\":0.8355011476664116,\"relative-y\":0.7017857142857142,\"relative-x2\":0.8355011476664116,\"relative-y2\":0.7017857142857142,\"elapse-time\":1532.6950000599027},{\"relative-x\":0.7719969395562356,\"relative-y\":0.5803571428571429,\"relative-x2\":0.7719969395562356,\"relative-y2\":0.5803571428571429,\"elapse-time\":1613.6549999937415},{\"relative-x\":0.8898240244835501,\"relative-y\":0.5571428571428572,\"relative-x2\":0.8898240244835501,\"relative-y2\":0.5571428571428572,\"elapse-time\":1690.1350000407547},{\"relative-x\":0.8156082631981637,\"relative-y\":0.5330357142857143,\"relative-x2\":0.8156082631981637,\"relative-y2\":0.5330357142857143,\"elapse-time\":1769.7999998927116},{\"relative-x\":0.8339709257842387,\"relative-y\":0.39464285714285713,\"relative-x2\":0.8339709257842387,\"relative-y2\":0.39464285714285713,\"elapse-time\":1852.4199998937547},{\"relative-x\":0.809487375669472,\"relative-y\":0.4607142857142857,\"relative-x2\":0.809487375669472,\"relative-y2\":0.4607142857142857,\"elapse-time\":1933.5050000809133},{\"relative-x\":0.8446824789594491,\"relative-y\":0.45357142857142857,\"relative-x2\":0.8446824789594491,\"relative-y2\":0.45357142857142857,\"elapse-time\":2013.5449999943376},{\"relative-x\":0.6258607498087223,\"relative-y\":0.4348214285714286,\"relative-x2\":0.6258607498087223,\"relative-y2\":0.4348214285714286,\"elapse-time\":2091.3100000470877},{\"relative-x\":0.3680183626625861,\"relative-y\":0.37857142857142856,\"relative-x2\":0.3680183626625861,\"relative-y2\":0.37857142857142856,\"elapse-time\":2170.824999921024},{\"relative-x\":0.3618974751338944,\"relative-y\":0.4107142857142857,\"relative-x2\":0.3618974751338944,\"relative-y2\":0.4107142857142857,\"elapse-time\":2263.0199999548495},{\"relative-x\":0.23029839326702373,\"relative-y\":0.45625,\"relative-x2\":0.23029839326702373,\"relative-y2\":0.45625,\"elapse-time\":2332.325000083074},{\"relative-x\":0.23029839326702373,\"relative-y\":0.38839285714285715,\"relative-x2\":0.23029839326702373,\"relative-y2\":0.38839285714285715,\"elapse-time\":2409.715000074357},{\"relative-x\":0.2540168324407039,\"relative-y\":0.39375,\"relative-x2\":0.2540168324407039,\"relative-y2\":0.39375,\"elapse-time\":2489.784999983385},{\"relative-x\":0.1009946442234124,\"relative-y\":0.46517857142857144,\"relative-x2\":0.1009946442234124,\"relative-y2\":0.46517857142857144,\"elapse-time\":2570.8250000607222},{\"relative-x\":0.11782708492731446,\"relative-y\":0.45982142857142855,\"relative-x2\":0.11782708492731446,\"relative-y2\":0.45982142857142855,\"elapse-time\":2652.324999915436}]}","realtrial":true,"trial_type":"binary-choice","trial_index":90,"time_elapsed":249838,"internal_node_id":"0.0-13.10-2.10","browser_name":"Chrome","browser_type":"85.0","subject":"e2tp9d4","interaction":"[]","windowWidth":1307,"windowHight":1120},{"rt":null,"stimulus":"<span id=\"calibration_dot_instruction\"></span>","key_press":null,"trial_type":"html-keyboard-response","trial_index":91,"time_elapsed":250342,"internal_node_id":"0.0-13.11-1.11-0.11","browser_name":"Chrome","browser_type":"85.0","subject":"e2tp9d4","interaction":"[]","windowWidth":1307,"windowHight":1120},{"stimulus":["../img/FoodImages/foodStimulus_32.jpg","../img/FoodImages/foodStimulus_3.jpg"],"left_stimulus":"../img/FoodImages/foodStimulus_32.jpg","right_stimulus":"../img/FoodImages/foodStimulus_3.jpg","rt":2342.750000068918,"key_press":74,"choices":["F","J"],"eyeData":"{\"history\":[{\"relative-x\":0.4177505738332058,\"relative-y\":0.4919642857142857,\"relative-x2\":0.4177505738332058,\"relative-y2\":0.4919642857142857,\"elapse-time\":91.96500014513731},{\"relative-x\":0.38102524866105586,\"relative-y\":0.45625,\"relative-x2\":0.38102524866105586,\"relative-y2\":0.45625,\"elapse-time\":171.5550001244992},{\"relative-x\":0.5118592195868401,\"relative-y\":0.45535714285714285,\"relative-x2\":0.5118592195868401,\"relative-y2\":0.45535714285714285,\"elapse-time\":249.4399999268353},{\"relative-x\":0.5087987758224942,\"relative-y\":0.45714285714285713,\"relative-x2\":0.5087987758224942,\"relative-y2\":0.45714285714285713,\"elapse-time\":336.1049999948591},{\"relative-x\":0.5439938791124713,\"relative-y\":0.42232142857142857,\"relative-x2\":0.5439938791124713,\"relative-y2\":0.42232142857142857,\"elapse-time\":412.9950001370162},{\"relative-x\":0.7842387146136189,\"relative-y\":0.40982142857142856,\"relative-x2\":0.7842387146136189,\"relative-y2\":0.40982142857142856,\"elapse-time\":492.91000002995133},{\"relative-x\":0.7972456006120887,\"relative-y\":0.49910714285714286,\"relative-x2\":0.7972456006120887,\"relative-y2\":0.49910714285714286,\"elapse-time\":572.1899999771267},{\"relative-x\":0.9058913542463657,\"relative-y\":0.3919642857142857,\"relative-x2\":0.9058913542463657,\"relative-y2\":0.3919642857142857,\"elapse-time\":650.0150000210851},{\"relative-x\":0.8569242540168325,\"relative-y\":0.5196428571428572,\"relative-x2\":0.8569242540168325,\"relative-y2\":0.5196428571428572,\"elapse-time\":734.5700000878423},{\"relative-x\":0.8133129303749044,\"relative-y\":0.4625,\"relative-x2\":0.8133129303749044,\"relative-y2\":0.4625,\"elapse-time\":810.8350001275539},{\"relative-x\":0.9525631216526397,\"relative-y\":0.3794642857142857,\"relative-x2\":0.9525631216526397,\"relative-y2\":0.3794642857142857,\"elapse-time\":892.7700000349432},{\"relative-x\":0.8393267023718439,\"relative-y\":0.4875,\"relative-x2\":0.8393267023718439,\"relative-y2\":0.4875,\"elapse-time\":971.1550001520663},{\"relative-x\":0.7628156082631982,\"relative-y\":0.46964285714285714,\"relative-x2\":0.7628156082631982,\"relative-y2\":0.46964285714285714,\"elapse-time\":1049.360000062734},{\"relative-x\":0.23488905891354248,\"relative-y\":0.41875,\"relative-x2\":0.23488905891354248,\"relative-y2\":0.41875,\"elapse-time\":1146.5700000990182},{\"relative-x\":0.18592195868400918,\"relative-y\":0.39107142857142857,\"relative-x2\":0.18592195868400918,\"relative-y2\":0.39107142857142857,\"elapse-time\":1212.3400000855327},{\"relative-x\":0.17368018362662585,\"relative-y\":0.45803571428571427,\"relative-x2\":0.17368018362662585,\"relative-y2\":0.45803571428571427,\"elapse-time\":1293.210000032559},{\"relative-x\":0.13236419280795717,\"relative-y\":0.48928571428571427,\"relative-x2\":0.13236419280795717,\"relative-y2\":0.48928571428571427,\"elapse-time\":1372.2000000998378},{\"relative-x\":0.1384850803366488,\"relative-y\":0.46517857142857144,\"relative-x2\":0.1384850803366488,\"relative-y2\":0.46517857142857144,\"elapse-time\":1450.1050000544637},{\"relative-x\":0.10252486610558531,\"relative-y\":0.3517857142857143,\"relative-x2\":0.10252486610558531,\"relative-y2\":0.3517857142857143,\"elapse-time\":1534.7949999850243},{\"relative-x\":0.1315990818668707,\"relative-y\":0.39107142857142857,\"relative-x2\":0.1315990818668707,\"relative-y2\":0.39107142857142857,\"elapse-time\":1613.219999941066},{\"relative-x\":0.19586840091813312,\"relative-y\":0.34732142857142856,\"relative-x2\":0.19586840091813312,\"relative-y2\":0.34732142857142856,\"elapse-time\":1693.2950001209974},{\"relative-x\":0.26931905126243305,\"relative-y\":0.5446428571428571,\"relative-x2\":0.26931905126243305,\"relative-y2\":0.5446428571428571,\"elapse-time\":1772.6549999788404},{\"relative-x\":0.7918898240244836,\"relative-y\":0.79375,\"relative-x2\":0.7918898240244836,\"relative-y2\":0.79375,\"elapse-time\":1849.8949999921024},{\"relative-x\":0.6977811782708493,\"relative-y\":0.6383928571428571,\"relative-x2\":0.6977811782708493,\"relative-y2\":0.6383928571428571,\"elapse-time\":1936.3299999386072},{\"relative-x\":0.8408569242540168,\"relative-y\":0.6330357142857143,\"relative-x2\":0.8408569242540168,\"relative-y2\":0.6330357142857143,\"elapse-time\":2012.3250000178814},{\"relative-x\":0.8347360367253251,\"relative-y\":0.42857142857142855,\"relative-x2\":0.8347360367253251,\"relative-y2\":0.42857142857142855,\"elapse-time\":2089.6900000516325},{\"relative-x\":0.9081866870696251,\"relative-y\":0.4142857142857143,\"relative-x2\":0.9081866870696251,\"relative-y2\":0.4142857142857143,\"elapse-time\":2171.70500010252},{\"relative-x\":0.4667176740627391,\"relative-y\":0.6080357142857142,\"relative-x2\":0.4667176740627391,\"relative-y2\":0.6080357142857142,\"elapse-time\":2294.590000063181},{\"relative-x\":0.2563121652639633,\"relative-y\":0.4758928571428571,\"relative-x2\":0.2563121652639633,\"relative-y2\":0.4758928571428571,\"elapse-time\":2335.6500000227243},{\"relative-x\":0.19127773527161437,\"relative-y\":0.4232142857142857,\"relative-x2\":0.19127773527161437,\"relative-y2\":0.4232142857142857,\"elapse-time\":2408.964999951422},{\"relative-x\":0.4728385615914308,\"relative-y\":0.48839285714285713,\"relative-x2\":0.4728385615914308,\"relative-y2\":0.48839285714285713,\"elapse-time\":2493.41500014998},{\"relative-x\":0.7857689364957919,\"relative-y\":0.425,\"relative-x2\":0.7857689364957919,\"relative-y2\":0.425,\"elapse-time\":2572.3250000737607},{\"relative-x\":0.79265493496557,\"relative-y\":0.45089285714285715,\"relative-x2\":0.79265493496557,\"relative-y2\":0.45089285714285715,\"elapse-time\":2650.1299999654293},{\"relative-x\":0.7834736036725325,\"relative-y\":0.39285714285714285,\"relative-x2\":0.7834736036725325,\"relative-y2\":0.39285714285714285,\"elapse-time\":2734.6149999648333},{\"relative-x\":0.8745218056618209,\"relative-y\":0.39107142857142857,\"relative-x2\":0.8745218056618209,\"relative-y2\":0.39107142857142857,\"elapse-time\":2812.4649999663234}]}","realtrial":true,"trial_type":"binary-choice","trial_index":92,"time_elapsed":253187,"internal_node_id":"0.0-13.11-2.11","browser_name":"Chrome","browser_type":"85.0","subject":"e2tp9d4","interaction":"[]","windowWidth":1307,"windowHight":1120},{"rt":null,"stimulus":"<span id=\"calibration_dot_instruction\"></span>","key_press":null,"trial_type":"html-keyboard-response","trial_index":93,"time_elapsed":253688,"internal_node_id":"0.0-13.12-1.12-0.12","browser_name":"Chrome","browser_type":"85.0","subject":"e2tp9d4","interaction":"[]","windowWidth":1307,"windowHight":1120},{"stimulus":["../img/FoodImages/foodStimulus_46.jpg","../img/FoodImages/foodStimulus_28.jpg"],"left_stimulus":"../img/FoodImages/foodStimulus_46.jpg","right_stimulus":"../img/FoodImages/foodStimulus_28.jpg","rt":1103.7900000810623,"key_press":74,"choices":["F","J"],"eyeData":"{\"history\":[{\"relative-x\":0.5363427697016068,\"relative-y\":0.45267857142857143,\"relative-x2\":0.5363427697016068,\"relative-y2\":0.45267857142857143,\"elapse-time\":95.36499995738268},{\"relative-x\":0.38102524866105586,\"relative-y\":0.47410714285714284,\"relative-x2\":0.38102524866105586,\"relative-y2\":0.47410714285714284,\"elapse-time\":172.82500001601875},{\"relative-x\":0.5531752104055088,\"relative-y\":0.5044642857142857,\"relative-x2\":0.5531752104055088,\"relative-y2\":0.5044642857142857,\"elapse-time\":250.62000006437302},{\"relative-x\":0.5026778882938026,\"relative-y\":0.45,\"relative-x2\":0.5026778882938026,\"relative-y2\":0.45,\"elapse-time\":331.6250001080334},{\"relative-x\":0.20428462127008415,\"relative-y\":0.49375,\"relative-x2\":0.20428462127008415,\"relative-y2\":0.49375,\"elapse-time\":410.27000010944903},{\"relative-x\":0.20045906656465187,\"relative-y\":0.38660714285714287,\"relative-x2\":0.20045906656465187,\"relative-y2\":0.38660714285714287,\"elapse-time\":495.26500003412366},{\"relative-x\":0.22953328232593725,\"relative-y\":0.39285714285714285,\"relative-x2\":0.22953328232593725,\"relative-y2\":0.39285714285714285,\"elapse-time\":571.4849999640137},{\"relative-x\":0.7000765110941086,\"relative-y\":0.38839285714285715,\"relative-x2\":0.7000765110941086,\"relative-y2\":0.38839285714285715,\"elapse-time\":653.7999999709427},{\"relative-x\":0.8745218056618209,\"relative-y\":0.43392857142857144,\"relative-x2\":0.8745218056618209,\"relative-y2\":0.43392857142857144,\"elapse-time\":730.8000000193715},{\"relative-x\":0.8270849273144606,\"relative-y\":0.3196428571428571,\"relative-x2\":0.8270849273144606,\"relative-y2\":0.3196428571428571,\"elapse-time\":809.7449999768287},{\"relative-x\":0.764345830145371,\"relative-y\":0.39732142857142855,\"relative-x2\":0.764345830145371,\"relative-y2\":0.39732142857142855,\"elapse-time\":895.1350001152605},{\"relative-x\":0.8171384850803366,\"relative-y\":0.47410714285714284,\"relative-x2\":0.8171384850803366,\"relative-y2\":0.47410714285714284,\"elapse-time\":969.634999986738},{\"relative-x\":0.9150726855394032,\"relative-y\":0.39017857142857143,\"relative-x2\":0.9150726855394032,\"relative-y2\":0.39017857142857143,\"elapse-time\":1051.9449999555945},{\"relative-x\":0.8928844682478959,\"relative-y\":0.43392857142857144,\"relative-x2\":0.8928844682478959,\"relative-y2\":0.43392857142857144,\"elapse-time\":1132.4050000403076},{\"relative-x\":0.7735271614384086,\"relative-y\":0.3410714285714286,\"relative-x2\":0.7735271614384086,\"relative-y2\":0.3410714285714286,\"elapse-time\":1209.379999898374},{\"relative-x\":0.8324407039020658,\"relative-y\":0.35267857142857145,\"relative-x2\":0.8324407039020658,\"relative-y2\":0.35267857142857145,\"elapse-time\":1295.3149999957532},{\"relative-x\":0.9403213465952563,\"relative-y\":0.4089285714285714,\"relative-x2\":0.9403213465952563,\"relative-y2\":0.4089285714285714,\"elapse-time\":1370.4399999696761},{\"relative-x\":0.7674062739097169,\"relative-y\":0.40267857142857144,\"relative-x2\":0.7674062739097169,\"relative-y2\":0.40267857142857144,\"elapse-time\":1450.6049999035895},{\"relative-x\":0.7727620504973222,\"relative-y\":0.28482142857142856,\"relative-x2\":0.7727620504973222,\"relative-y2\":0.28482142857142856,\"elapse-time\":1531.1350000556558},{\"relative-x\":0.7299158377964805,\"relative-y\":0.4044642857142857,\"relative-x2\":0.7299158377964805,\"relative-y2\":0.4044642857142857,\"elapse-time\":1611.839999910444}]}","realtrial":true,"trial_type":"binary-choice","trial_index":94,"time_elapsed":255306,"internal_node_id":"0.0-13.12-2.12","browser_name":"Chrome","browser_type":"85.0","subject":"e2tp9d4","interaction":"[]","windowWidth":1307,"windowHight":1120},{"rt":null,"stimulus":"<span id=\"calibration_dot_instruction\"></span>","key_press":null,"trial_type":"html-keyboard-response","trial_index":95,"time_elapsed":255807,"internal_node_id":"0.0-13.13-1.13-0.13","browser_name":"Chrome","browser_type":"85.0","subject":"e2tp9d4","interaction":"[]","windowWidth":1307,"windowHight":1120},{"stimulus":["../img/FoodImages/foodStimulus_20.jpg","../img/FoodImages/foodStimulus_39.jpg"],"left_stimulus":"../img/FoodImages/foodStimulus_20.jpg","right_stimulus":"../img/FoodImages/foodStimulus_39.jpg","rt":1051.6200000420213,"key_press":70,"choices":["F","J"],"eyeData":"{\"history\":[{\"relative-x\":0.42846212700841624,\"relative-y\":0.4133928571428571,\"relative-x2\":0.42846212700841624,\"relative-y2\":0.4133928571428571,\"elapse-time\":89.7649999242276},{\"relative-x\":0.495026778882938,\"relative-y\":0.4473214285714286,\"relative-x2\":0.495026778882938,\"relative-y2\":0.4473214285714286,\"elapse-time\":176.4549999497831},{\"relative-x\":0.531752104055088,\"relative-y\":0.46517857142857144,\"relative-x2\":0.531752104055088,\"relative-y2\":0.46517857142857144,\"elapse-time\":252.24999990314245},{\"relative-x\":0.5095638867635807,\"relative-y\":0.43392857142857144,\"relative-x2\":0.5095638867635807,\"relative-y2\":0.43392857142857144,\"elapse-time\":333.88499985449016},{\"relative-x\":0.15990818668706963,\"relative-y\":0.4785714285714286,\"relative-x2\":0.15990818668706963,\"relative-y2\":0.4785714285714286,\"elapse-time\":410.6799999717623},{\"relative-x\":0.12088752869166029,\"relative-y\":0.3464285714285714,\"relative-x2\":0.12088752869166029,\"relative-y2\":0.3464285714285714,\"elapse-time\":491.3949999026954},{\"relative-x\":0.24483550114766642,\"relative-y\":0.44821428571428573,\"relative-x2\":0.24483550114766642,\"relative-y2\":0.44821428571428573,\"elapse-time\":572.4849998950958},{\"relative-x\":0.23335883703136956,\"relative-y\":0.49464285714285716,\"relative-x2\":0.23335883703136956,\"relative-y2\":0.49464285714285716,\"elapse-time\":652.5049998890609},{\"relative-x\":0.26931905126243305,\"relative-y\":0.50625,\"relative-x2\":0.26931905126243305,\"relative-y2\":0.50625,\"elapse-time\":733.490000013262},{\"relative-x\":0.18515684774292274,\"relative-y\":0.42410714285714285,\"relative-x2\":0.18515684774292274,\"relative-y2\":0.42410714285714285,\"elapse-time\":811.0350000206381},{\"relative-x\":0.5202754399387911,\"relative-y\":0.46339285714285716,\"relative-x2\":0.5202754399387911,\"relative-y2\":0.46339285714285716,\"elapse-time\":890.4649999458343},{\"relative-x\":0.846212700841622,\"relative-y\":0.45,\"relative-x2\":0.846212700841622,\"relative-y2\":0.45,\"elapse-time\":975.9100000374019},{\"relative-x\":0.8026013771996939,\"relative-y\":0.4955357142857143,\"relative-x2\":0.8026013771996939,\"relative-y2\":0.4955357142857143,\"elapse-time\":1049.9449998605996},{\"relative-x\":0.19510328997704668,\"relative-y\":0.46875,\"relative-x2\":0.19510328997704668,\"relative-y2\":0.46875,\"elapse-time\":1133.4999999962747},{\"relative-x\":0.24636572302983933,\"relative-y\":0.5151785714285714,\"relative-x2\":0.24636572302983933,\"relative-y2\":0.5151785714285714,\"elapse-time\":1211.9650000240654},{\"relative-x\":0.22264728385615914,\"relative-y\":0.4669642857142857,\"relative-x2\":0.22264728385615914,\"relative-y2\":0.4669642857142857,\"elapse-time\":1289.6499999333173},{\"relative-x\":0.21652639632746748,\"relative-y\":0.41696428571428573,\"relative-x2\":0.21652639632746748,\"relative-y2\":0.41696428571428573,\"elapse-time\":1373.3699999284},{\"relative-x\":0.14919663351185922,\"relative-y\":0.39285714285714285,\"relative-x2\":0.14919663351185922,\"relative-y2\":0.39285714285714285,\"elapse-time\":1450.6649998947978},{\"relative-x\":0.20275439938791126,\"relative-y\":0.40982142857142856,\"relative-x2\":0.20275439938791126,\"relative-y2\":0.40982142857142856,\"elapse-time\":1531.5399998798966}]}","realtrial":true,"trial_type":"binary-choice","trial_index":96,"time_elapsed":257360,"internal_node_id":"0.0-13.13-2.13","browser_name":"Chrome","browser_type":"85.0","subject":"e2tp9d4","interaction":"[]","windowWidth":1307,"windowHight":1120},{"rt":null,"stimulus":"<span id=\"calibration_dot_instruction\"></span>","key_press":null,"trial_type":"html-keyboard-response","trial_index":97,"time_elapsed":257860,"internal_node_id":"0.0-13.14-1.14-0.14","browser_name":"Chrome","browser_type":"85.0","subject":"e2tp9d4","interaction":"[]","windowWidth":1307,"windowHight":1120},{"stimulus":["../img/FoodImages/foodStimulus_24.jpg","../img/FoodImages/foodStimulus_46.jpg"],"left_stimulus":"../img/FoodImages/foodStimulus_24.jpg","right_stimulus":"../img/FoodImages/foodStimulus_46.jpg","rt":1619.5450001396239,"key_press":74,"choices":["F","J"],"eyeData":"{\"history\":[{\"relative-x\":0.5462892119357307,\"relative-y\":0.5508928571428572,\"relative-x2\":0.5462892119357307,\"relative-y2\":0.5508928571428572,\"elapse-time\":90.57000000029802},{\"relative-x\":0.5409334353481254,\"relative-y\":0.5196428571428572,\"relative-x2\":0.5409334353481254,\"relative-y2\":0.5196428571428572,\"elapse-time\":170.33000010997057},{\"relative-x\":0.5761285386381025,\"relative-y\":0.5410714285714285,\"relative-x2\":0.5761285386381025,\"relative-y2\":0.5410714285714285,\"elapse-time\":254.6149999834597},{\"relative-x\":0.5279265493496557,\"relative-y\":0.4625,\"relative-x2\":0.5279265493496557,\"relative-y2\":0.4625,\"elapse-time\":333.4850000683218},{\"relative-x\":0.5126243305279266,\"relative-y\":0.3919642857142857,\"relative-x2\":0.5126243305279266,\"relative-y2\":0.3919642857142857,\"elapse-time\":412.4549999833107},{\"relative-x\":0.8056618209640398,\"relative-y\":0.4107142857142857,\"relative-x2\":0.8056618209640398,\"relative-y2\":0.4107142857142857,\"elapse-time\":491.65500001981854},{\"relative-x\":0.8026013771996939,\"relative-y\":0.3669642857142857,\"relative-x2\":0.8026013771996939,\"relative-y2\":0.3669642857142857,\"elapse-time\":569.6199999656528},{\"relative-x\":0.7605202754399388,\"relative-y\":0.34464285714285714,\"relative-x2\":0.7605202754399388,\"relative-y2\":0.34464285714285714,\"elapse-time\":655.4100001230836},{\"relative-x\":0.8676358071920428,\"relative-y\":0.3794642857142857,\"relative-x2\":0.8676358071920428,\"relative-y2\":0.3794642857142857,\"elapse-time\":730.4400000721216},{\"relative-x\":0.7597551644988524,\"relative-y\":0.40982142857142856,\"relative-x2\":0.7597551644988524,\"relative-y2\":0.40982142857142856,\"elapse-time\":813.3549999911338},{\"relative-x\":0.25478194338179033,\"relative-y\":0.6044642857142857,\"relative-x2\":0.25478194338179033,\"relative-y2\":0.6044642857142857,\"elapse-time\":890.4099999926984},{\"relative-x\":0.2723794950267789,\"relative-y\":0.4089285714285714,\"relative-x2\":0.2723794950267789,\"relative-y2\":0.4089285714285714,\"elapse-time\":974.1350000258535},{\"relative-x\":0.2777352716143841,\"relative-y\":0.5267857142857143,\"relative-x2\":0.2777352716143841,\"relative-y2\":0.5267857142857143,\"elapse-time\":1055.9050000738353},{\"relative-x\":0.3297628156082632,\"relative-y\":0.5258928571428572,\"relative-x2\":0.3297628156082632,\"relative-y2\":0.5258928571428572,\"elapse-time\":1129.939999897033},{\"relative-x\":0.2570772762050497,\"relative-y\":0.4642857142857143,\"relative-x2\":0.2570772762050497,\"relative-y2\":0.4642857142857143,\"elapse-time\":1214.115000097081},{\"relative-x\":0.19051262433052793,\"relative-y\":0.4589285714285714,\"relative-x2\":0.19051262433052793,\"relative-y2\":0.4589285714285714,\"elapse-time\":1291.17999994196},{\"relative-x\":0.7505738332058148,\"relative-y\":0.5071428571428571,\"relative-x2\":0.7505738332058148,\"relative-y2\":0.5071428571428571,\"elapse-time\":1371.6599999461323},{\"relative-x\":0.6954858454475898,\"relative-y\":0.4919642857142857,\"relative-x2\":0.6954858454475898,\"relative-y2\":0.4919642857142857,\"elapse-time\":1453.9799999911338},{\"relative-x\":0.7811782708492732,\"relative-y\":0.4125,\"relative-x2\":0.7811782708492732,\"relative-y2\":0.4125,\"elapse-time\":1533.009999897331},{\"relative-x\":0.8508033664881408,\"relative-y\":0.5375,\"relative-x2\":0.8508033664881408,\"relative-y2\":0.5375,\"elapse-time\":1612.2049998957664},{\"relative-x\":1.0994644223412395,\"relative-y\":0.375,\"relative-x2\":1.0994644223412395,\"relative-y2\":0.375,\"elapse-time\":1691.3350000977516},{\"relative-x\":0.9441469013006886,\"relative-y\":0.38392857142857145,\"relative-x2\":0.9441469013006886,\"relative-y2\":0.38392857142857145,\"elapse-time\":1770.9250000771135},{\"relative-x\":1.0573833205814842,\"relative-y\":0.40982142857142856,\"relative-x2\":1.0573833205814842,\"relative-y2\":0.40982142857142856,\"elapse-time\":1854.835000121966},{\"relative-x\":0.9571537872991583,\"relative-y\":0.30625,\"relative-x2\":0.9571537872991583,\"relative-y2\":0.30625,\"elapse-time\":1931.950000114739},{\"relative-x\":0.811017597551645,\"relative-y\":0.35267857142857145,\"relative-x2\":0.811017597551645,\"relative-y2\":0.35267857142857145,\"elapse-time\":2013.5300001129508},{\"relative-x\":0.6335118592195869,\"relative-y\":0.40535714285714286,\"relative-x2\":0.6335118592195869,\"relative-y2\":0.40535714285714286,\"elapse-time\":2091.6999999899417}]}","realtrial":true,"trial_type":"binary-choice","trial_index":98,"time_elapsed":259982,"internal_node_id":"0.0-13.14-2.14","browser_name":"Chrome","browser_type":"85.0","subject":"e2tp9d4","interaction":"[]","windowWidth":1307,"windowHight":1120},{"validationPoints":"[{\"x\":\"80%\",\"y\":\"20%\",\"valid\":true,\"hitRatio\":0.8928571428571429},{\"x\":\"65%\",\"y\":\"65%\",\"valid\":true,\"hitRatio\":0.9831932773109243},{\"x\":\"50%\",\"y\":\"50%\",\"valid\":true,\"hitRatio\":0.9831932773109243}]","accuracy":1,"trial_type":"eye-tracking","trial_index":99,"time_elapsed":270032,"internal_node_id":"0.0-13.15-0.15-0.15","browser_name":"Chrome","browser_type":"85.0","subject":"e2tp9d4","interaction":"[]","windowWidth":1307,"windowHight":1120},{"stimulus":["../img/FoodImages/foodStimulus_17.jpg","../img/FoodImages/foodStimulus_27.jpg"],"left_stimulus":"../img/FoodImages/foodStimulus_17.jpg","right_stimulus":"../img/FoodImages/foodStimulus_27.jpg","rt":1091.86500008218,"key_press":74,"choices":["F","J"],"eyeData":"{\"history\":[{\"relative-x\":0.6832440703902066,\"relative-y\":0.4589285714285714,\"relative-x2\":0.6832440703902066,\"relative-y2\":0.4589285714285714,\"elapse-time\":91.45499998703599},{\"relative-x\":0.5348125478194338,\"relative-y\":0.4375,\"relative-x2\":0.5348125478194338,\"relative-y2\":0.4375,\"elapse-time\":171.89499991945922},{\"relative-x\":0.5631216526396328,\"relative-y\":0.4901785714285714,\"relative-x2\":0.5631216526396328,\"relative-y2\":0.4901785714285714,\"elapse-time\":252.49999994412065},{\"relative-x\":0.5286916602907421,\"relative-y\":0.4669642857142857,\"relative-x2\":0.5286916602907421,\"relative-y2\":0.4669642857142857,\"elapse-time\":331.78999996744096},{\"relative-x\":0.48508033664881406,\"relative-y\":0.4303571428571429,\"relative-x2\":0.48508033664881406,\"relative-y2\":0.4303571428571429,\"elapse-time\":414.0399999450892},{\"relative-x\":0.75592960979342,\"relative-y\":0.48660714285714285,\"relative-x2\":0.75592960979342,\"relative-y2\":0.48660714285714285,\"elapse-time\":491.51499988511205},{\"relative-x\":0.9709257842387146,\"relative-y\":0.45982142857142855,\"relative-x2\":0.9709257842387146,\"relative-y2\":0.45982142857142855,\"elapse-time\":574.1599998436868},{\"relative-x\":0.8859984697781178,\"relative-y\":0.44821428571428573,\"relative-x2\":0.8859984697781178,\"relative-y2\":0.44821428571428573,\"elapse-time\":650.6850000005215},{\"relative-x\":0.31293037490436115,\"relative-y\":0.4669642857142857,\"relative-x2\":0.31293037490436115,\"relative-y2\":0.4669642857142857,\"elapse-time\":733.0449998844415},{\"relative-x\":0.13389441469013008,\"relative-y\":0.38660714285714287,\"relative-x2\":0.13389441469013008,\"relative-y2\":0.38660714285714287,\"elapse-time\":812.5499999150634},{\"relative-x\":0.19892884468247896,\"relative-y\":0.39464285714285713,\"relative-x2\":0.19892884468247896,\"relative-y2\":0.39464285714285713,\"elapse-time\":890.2999998535961},{\"relative-x\":0.18286151491966335,\"relative-y\":0.4035714285714286,\"relative-x2\":0.18286151491966335,\"relative-y2\":0.4035714285714286,\"elapse-time\":970.7549999002367},{\"relative-x\":0.7880642693190513,\"relative-y\":0.8410714285714286,\"relative-x2\":0.7880642693190513,\"relative-y2\":0.8410714285714286,\"elapse-time\":1049.6849999763072},{\"relative-x\":0.7230298393267024,\"relative-y\":0.7375,\"relative-x2\":0.7230298393267024,\"relative-y2\":0.7375,\"elapse-time\":1141.8699999339879},{\"relative-x\":0.75592960979342,\"relative-y\":0.5910714285714286,\"relative-x2\":0.75592960979342,\"relative-y2\":0.5910714285714286,\"elapse-time\":1212.0149999391288},{\"relative-x\":0.7245600612088753,\"relative-y\":0.5508928571428572,\"relative-x2\":0.7245600612088753,\"relative-y2\":0.5508928571428572,\"elapse-time\":1292.8349999710917},{\"relative-x\":0.7536342769701607,\"relative-y\":0.6348214285714285,\"relative-x2\":0.7536342769701607,\"relative-y2\":0.6348214285714285,\"elapse-time\":1370.4150000121444},{\"relative-x\":0.7031369548584545,\"relative-y\":0.5232142857142857,\"relative-x2\":0.7031369548584545,\"relative-y2\":0.5232142857142857,\"elapse-time\":1450.029999949038},{\"relative-x\":0.864575363427697,\"relative-y\":0.44642857142857145,\"relative-x2\":0.864575363427697,\"relative-y2\":0.44642857142857145,\"elapse-time\":1531.3299999106675}]}","realtrial":true,"trial_type":"binary-choice","trial_index":100,"time_elapsed":271627,"internal_node_id":"0.0-13.15-2.15","browser_name":"Chrome","browser_type":"85.0","subject":"e2tp9d4","interaction":"[]","windowWidth":1307,"windowHight":1120},{"rt":null,"stimulus":"<span id=\"calibration_dot_instruction\"></span>","key_press":null,"trial_type":"html-keyboard-response","trial_index":101,"time_elapsed":272128,"internal_node_id":"0.0-13.16-1.16-0.16","browser_name":"Chrome","browser_type":"85.0","subject":"e2tp9d4","interaction":"[]","windowWidth":1307,"windowHight":1120},{"stimulus":["../img/FoodImages/foodStimulus_9.jpg","../img/FoodImages/foodStimulus_11.jpg"],"left_stimulus":"../img/FoodImages/foodStimulus_9.jpg","right_stimulus":"../img/FoodImages/foodStimulus_11.jpg","rt":1181.7649998702109,"key_press":70,"choices":["F","J"],"eyeData":"{\"history\":[{\"relative-x\":0.5424636572302984,\"relative-y\":0.46785714285714286,\"relative-x2\":0.5424636572302984,\"relative-y2\":0.46785714285714286,\"elapse-time\":89.86500022001565},{\"relative-x\":0.4820198928844682,\"relative-y\":0.525,\"relative-x2\":0.4820198928844682,\"relative-y2\":0.525,\"elapse-time\":172.85000020638108},{\"relative-x\":0.48355011476664117,\"relative-y\":0.4089285714285714,\"relative-x2\":0.48355011476664117,\"relative-y2\":0.4089285714285714,\"elapse-time\":252.55500013008714},{\"relative-x\":0.4843152257077276,\"relative-y\":0.43839285714285714,\"relative-x2\":0.4843152257077276,\"relative-y2\":0.43839285714285714,\"elapse-time\":333.14500004053116},{\"relative-x\":0.5034429992348891,\"relative-y\":0.39375,\"relative-x2\":0.5034429992348891,\"relative-y2\":0.39375,\"elapse-time\":412.3100000433624},{\"relative-x\":0.18974751338944146,\"relative-y\":0.46875,\"relative-x2\":0.18974751338944146,\"relative-y2\":0.46875,\"elapse-time\":489.95500011369586},{\"relative-x\":0.23182861514919664,\"relative-y\":0.46875,\"relative-x2\":0.23182861514919664,\"relative-y2\":0.46875,\"elapse-time\":574.2650001775473},{\"relative-x\":0.3152257077276205,\"relative-y\":0.43392857142857144,\"relative-x2\":0.3152257077276205,\"relative-y2\":0.43392857142857144,\"elapse-time\":651.140000205487},{\"relative-x\":0.9808722264728386,\"relative-y\":0.43125,\"relative-x2\":0.9808722264728386,\"relative-y2\":0.43125,\"elapse-time\":733.2500000484288},{\"relative-x\":0.8469778117827085,\"relative-y\":0.3991071428571429,\"relative-x2\":0.8469778117827085,\"relative-y2\":0.3991071428571429,\"elapse-time\":813.4000001009554},{\"relative-x\":0.8079571537872992,\"relative-y\":0.33125,\"relative-x2\":0.8079571537872992,\"relative-y2\":0.33125,\"elapse-time\":890.2100000996143},{\"relative-x\":0.613618974751339,\"relative-y\":0.34910714285714284,\"relative-x2\":0.613618974751339,\"relative-y2\":0.34910714285714284,\"elapse-time\":974.1700000595301},{\"relative-x\":0.24789594491201225,\"relative-y\":0.6758928571428572,\"relative-x2\":0.24789594491201225,\"relative-y2\":0.6758928571428572,\"elapse-time\":1053.0050001107156},{\"relative-x\":0.24407039020657995,\"relative-y\":0.5330357142857143,\"relative-x2\":0.24407039020657995,\"relative-y2\":0.5330357142857143,\"elapse-time\":1129.0500001050532},{\"relative-x\":0.18821729150726854,\"relative-y\":0.4017857142857143,\"relative-x2\":0.18821729150726854,\"relative-y2\":0.4017857142857143,\"elapse-time\":1211.3950001075864},{\"relative-x\":0.14001530221882172,\"relative-y\":0.4785714285714286,\"relative-x2\":0.14001530221882172,\"relative-y2\":0.4785714285714286,\"elapse-time\":1289.9600001983345},{\"relative-x\":0.23488905891354248,\"relative-y\":0.4035714285714286,\"relative-x2\":0.23488905891354248,\"relative-y2\":0.4035714285714286,\"elapse-time\":1375.0550001859665},{\"relative-x\":0.20581484315225707,\"relative-y\":0.43125,\"relative-x2\":0.20581484315225707,\"relative-y2\":0.43125,\"elapse-time\":1452.6200001128018},{\"relative-x\":0.1660290742157613,\"relative-y\":0.47232142857142856,\"relative-x2\":0.1660290742157613,\"relative-y2\":0.47232142857142856,\"elapse-time\":1532.8150000423193},{\"relative-x\":0.18439173680183626,\"relative-y\":0.5410714285714285,\"relative-x2\":0.18439173680183626,\"relative-y2\":0.5410714285714285,\"elapse-time\":1613.5900001972914},{\"relative-x\":0.135424636572303,\"relative-y\":0.4455357142857143,\"relative-x2\":0.135424636572303,\"relative-y2\":0.4455357142857143,\"elapse-time\":1689.180000219494}]}","realtrial":true,"trial_type":"binary-choice","trial_index":102,"time_elapsed":273820,"internal_node_id":"0.0-13.16-2.16","browser_name":"Chrome","browser_type":"85.0","subject":"e2tp9d4","interaction":"[]","windowWidth":1307,"windowHight":1120},{"rt":null,"stimulus":"<span id=\"calibration_dot_instruction\"></span>","key_press":null,"trial_type":"html-keyboard-response","trial_index":103,"time_elapsed":274323,"internal_node_id":"0.0-13.17-1.17-0.17","browser_name":"Chrome","browser_type":"85.0","subject":"e2tp9d4","interaction":"[]","windowWidth":1307,"windowHight":1120},{"stimulus":["../img/FoodImages/foodStimulus_24.jpg","../img/FoodImages/foodStimulus_35.jpg"],"left_stimulus":"../img/FoodImages/foodStimulus_24.jpg","right_stimulus":"../img/FoodImages/foodStimulus_35.jpg","rt":623.410000000149,"key_press":74,"choices":["F","J"],"eyeData":"{\"history\":[{\"relative-x\":0.5876052027543994,\"relative-y\":0.5125,\"relative-x2\":0.5876052027543994,\"relative-y2\":0.5125,\"elapse-time\":91.93999995477498},{\"relative-x\":0.5776587605202754,\"relative-y\":0.4785714285714286,\"relative-x2\":0.5776587605202754,\"relative-y2\":0.4785714285714286,\"elapse-time\":171.47499998100102},{\"relative-x\":0.5241009946442234,\"relative-y\":0.4330357142857143,\"relative-x2\":0.5241009946442234,\"relative-y2\":0.4330357142857143,\"elapse-time\":254.08499990589917},{\"relative-x\":0.5845447589900535,\"relative-y\":0.42589285714285713,\"relative-x2\":0.5845447589900535,\"relative-y2\":0.42589285714285713,\"elapse-time\":332.75999990291893},{\"relative-x\":0.782708492731446,\"relative-y\":0.5133928571428571,\"relative-x2\":0.782708492731446,\"relative-y2\":0.5133928571428571,\"elapse-time\":412.4749999027699},{\"relative-x\":0.7666411629686305,\"relative-y\":0.42857142857142855,\"relative-x2\":0.7666411629686305,\"relative-y2\":0.42857142857142855,\"elapse-time\":491.829999955371},{\"relative-x\":0.8339709257842387,\"relative-y\":0.4330357142857143,\"relative-x2\":0.8339709257842387,\"relative-y2\":0.4330357142857143,\"elapse-time\":570.8549998234957},{\"relative-x\":0.8469778117827085,\"relative-y\":0.33214285714285713,\"relative-x2\":0.8469778117827085,\"relative-y2\":0.33214285714285713,\"elapse-time\":669.7649999987334},{\"relative-x\":0.7903596021423106,\"relative-y\":0.39553571428571427,\"relative-x2\":0.7903596021423106,\"relative-y2\":0.39553571428571427,\"elapse-time\":731.8099997937679},{\"relative-x\":0.846212700841622,\"relative-y\":0.39285714285714285,\"relative-x2\":0.846212700841622,\"relative-y2\":0.39285714285714285,\"elapse-time\":814.5500000100583},{\"relative-x\":0.8263198163733741,\"relative-y\":0.39553571428571427,\"relative-x2\":0.8263198163733741,\"relative-y2\":0.39553571428571427,\"elapse-time\":890.6499999575317},{\"relative-x\":0.7413925019127774,\"relative-y\":0.39017857142857143,\"relative-x2\":0.7413925019127774,\"relative-y2\":0.39017857142857143,\"elapse-time\":971.2699998635799},{\"relative-x\":0.7681713848508034,\"relative-y\":0.39464285714285713,\"relative-x2\":0.7681713848508034,\"relative-y2\":0.39464285714285713,\"elapse-time\":1051.1249999981374},{\"relative-x\":0.6541698546289212,\"relative-y\":0.7723214285714286,\"relative-x2\":0.6541698546289212,\"relative-y2\":0.7723214285714286,\"elapse-time\":1131.9099999964237}]}","realtrial":true,"trial_type":"binary-choice","trial_index":104,"time_elapsed":275460,"internal_node_id":"0.0-13.17-2.17","browser_name":"Chrome","browser_type":"85.0","subject":"e2tp9d4","interaction":"[]","windowWidth":1307,"windowHight":1120},{"rt":null,"stimulus":"<span id=\"calibration_dot_instruction\"></span>","key_press":null,"trial_type":"html-keyboard-response","trial_index":105,"time_elapsed":275961,"internal_node_id":"0.0-13.18-1.18-0.18","browser_name":"Chrome","browser_type":"85.0","subject":"e2tp9d4","interaction":"[]","windowWidth":1307,"windowHight":1120},{"stimulus":["../img/FoodImages/foodStimulus_16.jpg","../img/FoodImages/foodStimulus_3.jpg"],"left_stimulus":"../img/FoodImages/foodStimulus_16.jpg","right_stimulus":"../img/FoodImages/foodStimulus_3.jpg","rt":578.8950000423938,"key_press":70,"choices":["F","J"],"eyeData":"{\"history\":[{\"relative-x\":0.49655700076511095,\"relative-y\":0.5955357142857143,\"relative-x2\":0.49655700076511095,\"relative-y2\":0.5955357142857143,\"elapse-time\":90.64500010572374},{\"relative-x\":0.4016832440703902,\"relative-y\":0.5267857142857143,\"relative-x2\":0.4016832440703902,\"relative-y2\":0.5267857142857143,\"elapse-time\":173.24999999254942},{\"relative-x\":0.49655700076511095,\"relative-y\":0.41160714285714284,\"relative-x2\":0.49655700076511095,\"relative-y2\":0.41160714285714284,\"elapse-time\":249.93500020354986},{\"relative-x\":0.5241009946442234,\"relative-y\":0.4955357142857143,\"relative-x2\":0.5241009946442234,\"relative-y2\":0.4955357142857143,\"elapse-time\":331.3750000670552},{\"relative-x\":0.35807192042846214,\"relative-y\":0.4044642857142857,\"relative-x2\":0.35807192042846214,\"relative-y2\":0.4044642857142857,\"elapse-time\":415.9450000151992},{\"relative-x\":0.12853863810252486,\"relative-y\":0.44285714285714284,\"relative-x2\":0.12853863810252486,\"relative-y2\":0.44285714285714284,\"elapse-time\":490.7800001092255},{\"relative-x\":0.21423106350420812,\"relative-y\":0.4401785714285714,\"relative-x2\":0.21423106350420812,\"relative-y2\":0.4401785714285714,\"elapse-time\":573.7799999769777},{\"relative-x\":0.20657995409334354,\"relative-y\":0.45803571428571427,\"relative-x2\":0.20657995409334354,\"relative-y2\":0.45803571428571427,\"elapse-time\":650.9850001893938},{\"relative-x\":0.1545524100994644,\"relative-y\":0.4517857142857143,\"relative-x2\":0.1545524100994644,\"relative-y2\":0.4517857142857143,\"elapse-time\":728.995000012219},{\"relative-x\":0.27620504973221116,\"relative-y\":0.4928571428571429,\"relative-x2\":0.27620504973221116,\"relative-y2\":0.4928571428571429,\"elapse-time\":812.550000147894},{\"relative-x\":0.11859219586840092,\"relative-y\":0.3705357142857143,\"relative-x2\":0.11859219586840092,\"relative-y2\":0.3705357142857143,\"elapse-time\":890.54000005126},{\"relative-x\":0.1675592960979342,\"relative-y\":0.425,\"relative-x2\":0.1675592960979342,\"relative-y2\":0.425,\"elapse-time\":973.0500001460314},{\"relative-x\":0.5631216526396328,\"relative-y\":0.4089285714285714,\"relative-x2\":0.5631216526396328,\"relative-y2\":0.4089285714285714,\"elapse-time\":1050.6949999835342}]}","realtrial":true,"trial_type":"binary-choice","trial_index":106,"time_elapsed":277041,"internal_node_id":"0.0-13.18-2.18","browser_name":"Chrome","browser_type":"85.0","subject":"e2tp9d4","interaction":"[]","windowWidth":1307,"windowHight":1120},{"rt":null,"stimulus":"<span id=\"calibration_dot_instruction\"></span>","key_press":null,"trial_type":"html-keyboard-response","trial_index":107,"time_elapsed":277543,"internal_node_id":"0.0-13.19-1.19-0.19","browser_name":"Chrome","browser_type":"85.0","subject":"e2tp9d4","interaction":"[]","windowWidth":1307,"windowHight":1120},{"stimulus":["../img/FoodImages/foodStimulus_24.jpg","../img/FoodImages/foodStimulus_45.jpg"],"left_stimulus":"../img/FoodImages/foodStimulus_24.jpg","right_stimulus":"../img/FoodImages/foodStimulus_45.jpg","rt":446.9399999361485,"key_press":74,"choices":["F","J"],"eyeData":"{\"history\":[{\"relative-x\":0.5547054322876818,\"relative-y\":0.3875,\"relative-x2\":0.5547054322876818,\"relative-y2\":0.3875,\"elapse-time\":92.98499999567866},{\"relative-x\":0.5600612088752869,\"relative-y\":0.3892857142857143,\"relative-x2\":0.5600612088752869,\"relative-y2\":0.3892857142857143,\"elapse-time\":170.3500000294298},{\"relative-x\":0.5271614384085692,\"relative-y\":0.3776785714285714,\"relative-x2\":0.5271614384085692,\"relative-y2\":0.3776785714285714,\"elapse-time\":251.85000011697412},{\"relative-x\":0.4774292272379495,\"relative-y\":0.35982142857142857,\"relative-x2\":0.4774292272379495,\"relative-y2\":0.35982142857142857,\"elapse-time\":333.7600000668317},{\"relative-x\":0.6059678653404744,\"relative-y\":0.35535714285714287,\"relative-x2\":0.6059678653404744,\"relative-y2\":0.35535714285714287,\"elapse-time\":412.4100001063198},{\"relative-x\":0.7153787299158378,\"relative-y\":0.4767857142857143,\"relative-x2\":0.7153787299158378,\"relative-y2\":0.4767857142857143,\"elapse-time\":494.7099999990314},{\"relative-x\":0.901300688599847,\"relative-y\":0.4017857142857143,\"relative-x2\":0.901300688599847,\"relative-y2\":0.4017857142857143,\"elapse-time\":570.1699999626726},{\"relative-x\":0.8408569242540168,\"relative-y\":0.4446428571428571,\"relative-x2\":0.8408569242540168,\"relative-y2\":0.4446428571428571,\"elapse-time\":651.7499999608845},{\"relative-x\":0.8951798010711554,\"relative-y\":0.41964285714285715,\"relative-x2\":0.8951798010711554,\"relative-y2\":0.41964285714285715,\"elapse-time\":734.5900000073016},{\"relative-x\":0.8064269319051263,\"relative-y\":0.42678571428571427,\"relative-x2\":0.8064269319051263,\"relative-y2\":0.42678571428571427,\"elapse-time\":812.2650000732392},{\"relative-x\":0.801071155317521,\"relative-y\":0.4330357142857143,\"relative-x2\":0.801071155317521,\"relative-y2\":0.4330357142857143,\"elapse-time\":894.730000058189}]}","realtrial":true,"trial_type":"binary-choice","trial_index":108,"time_elapsed":278491,"internal_node_id":"0.0-13.19-2.19","browser_name":"Chrome","browser_type":"85.0","subject":"e2tp9d4","interaction":"[]","windowWidth":1307,"windowHight":1120},{"validationPoints":"[{\"x\":\"80%\",\"y\":\"50%\",\"valid\":true,\"hitRatio\":0.9428571428571428},{\"x\":\"50%\",\"y\":\"20%\",\"valid\":true,\"hitRatio\":0.9732142857142857},{\"x\":\"50%\",\"y\":\"50%\",\"valid\":true,\"hitRatio\":0.9145299145299145}]","accuracy":1,"trial_type":"eye-tracking","trial_index":109,"time_elapsed":288514,"internal_node_id":"0.0-13.20-0.20-0.20","browser_name":"Chrome","browser_type":"85.0","subject":"e2tp9d4","interaction":"[]","windowWidth":1307,"windowHight":1120},{"stimulus":["../img/FoodImages/foodStimulus_46.jpg","../img/FoodImages/foodStimulus_42.jpg"],"left_stimulus":"../img/FoodImages/foodStimulus_46.jpg","right_stimulus":"../img/FoodImages/foodStimulus_42.jpg","rt":1120.0349999126047,"key_press":74,"choices":["F","J"],"eyeData":"{\"history\":[{\"relative-x\":0.5095638867635807,\"relative-y\":0.5410714285714285,\"relative-x2\":0.5095638867635807,\"relative-y2\":0.5410714285714285,\"elapse-time\":91.52500005438924},{\"relative-x\":0.6097934200459066,\"relative-y\":0.5794642857142858,\"relative-x2\":0.6097934200459066,\"relative-y2\":0.5794642857142858,\"elapse-time\":169.8800001759082},{\"relative-x\":0.5164498852333589,\"relative-y\":0.42589285714285713,\"relative-x2\":0.5164498852333589,\"relative-y2\":0.42589285714285713,\"elapse-time\":250.90500013902783},{\"relative-x\":0.5241009946442234,\"relative-y\":0.4375,\"relative-x2\":0.5241009946442234,\"relative-y2\":0.4375,\"elapse-time\":329.3700001668185},{\"relative-x\":0.2915072685539403,\"relative-y\":0.55,\"relative-x2\":0.2915072685539403,\"relative-y2\":0.55,\"elapse-time\":417.4699999857694},{\"relative-x\":0.24636572302983933,\"relative-y\":0.42142857142857143,\"relative-x2\":0.24636572302983933,\"relative-y2\":0.42142857142857143,\"elapse-time\":492.84500000067055},{\"relative-x\":0.26702371843917366,\"relative-y\":0.4642857142857143,\"relative-x2\":0.26702371843917366,\"relative-y2\":0.4642857142857143,\"elapse-time\":572.34499999322},{\"relative-x\":0.3221117061973986,\"relative-y\":0.3821428571428571,\"relative-x2\":0.3221117061973986,\"relative-y2\":0.3821428571428571,\"elapse-time\":650.7200000341982},{\"relative-x\":0.7620504973221117,\"relative-y\":0.5107142857142857,\"relative-x2\":0.7620504973221117,\"relative-y2\":0.5107142857142857,\"elapse-time\":729.7950000502169},{\"relative-x\":0.7023718439173681,\"relative-y\":0.43660714285714286,\"relative-x2\":0.7023718439173681,\"relative-y2\":0.43660714285714286,\"elapse-time\":814.3500001169741},{\"relative-x\":0.7704667176740627,\"relative-y\":0.35,\"relative-x2\":0.7704667176740627,\"relative-y2\":0.35,\"elapse-time\":892.6350001711398},{\"relative-x\":0.8706962509563887,\"relative-y\":0.4160714285714286,\"relative-x2\":0.8706962509563887,\"relative-y2\":0.4160714285714286,\"elapse-time\":972.1050001680851},{\"relative-x\":0.7628156082631982,\"relative-y\":0.3678571428571429,\"relative-x2\":0.7628156082631982,\"relative-y2\":0.3678571428571429,\"elapse-time\":1050.370000069961},{\"relative-x\":0.8048967100229534,\"relative-y\":0.3767857142857143,\"relative-x2\":0.8048967100229534,\"relative-y2\":0.3767857142857143,\"elapse-time\":1130.2350000478327},{\"relative-x\":0.774292272379495,\"relative-y\":0.31607142857142856,\"relative-x2\":0.774292272379495,\"relative-y2\":0.31607142857142856,\"elapse-time\":1215.3849999886006},{\"relative-x\":0.7413925019127774,\"relative-y\":0.3678571428571429,\"relative-x2\":0.7413925019127774,\"relative-y2\":0.3678571428571429,\"elapse-time\":1291.5550000034273},{\"relative-x\":0.6878347360367253,\"relative-y\":0.3892857142857143,\"relative-x2\":0.6878347360367253,\"relative-y2\":0.3892857142857143,\"elapse-time\":1370.7050001248717},{\"relative-x\":0.8553940321346595,\"relative-y\":0.40625,\"relative-x2\":0.8553940321346595,\"relative-y2\":0.40625,\"elapse-time\":1450.7500000763685},{\"relative-x\":0.7475133894414691,\"relative-y\":0.37410714285714286,\"relative-x2\":0.7475133894414691,\"relative-y2\":0.37410714285714286,\"elapse-time\":1529.130000155419},{\"relative-x\":0.7260902830910482,\"relative-y\":0.49642857142857144,\"relative-x2\":0.7260902830910482,\"relative-y2\":0.49642857142857144,\"elapse-time\":1612.2600000817329}]}","realtrial":true,"trial_type":"binary-choice","trial_index":110,"time_elapsed":290137,"internal_node_id":"0.0-13.20-2.20","browser_name":"Chrome","browser_type":"85.0","subject":"e2tp9d4","interaction":"[]","windowWidth":1307,"windowHight":1120},{"rt":null,"stimulus":"<span id=\"calibration_dot_instruction\"></span>","key_press":null,"trial_type":"html-keyboard-response","trial_index":111,"time_elapsed":290639,"internal_node_id":"0.0-13.21-1.21-0.21","browser_name":"Chrome","browser_type":"85.0","subject":"e2tp9d4","interaction":"[]","windowWidth":1307,"windowHight":1120},{"stimulus":["../img/FoodImages/foodStimulus_45.jpg","../img/FoodImages/foodStimulus_3.jpg"],"left_stimulus":"../img/FoodImages/foodStimulus_45.jpg","right_stimulus":"../img/FoodImages/foodStimulus_3.jpg","rt":362.51500016078353,"key_press":70,"choices":["F","J"],"eyeData":"{\"history\":[{\"relative-x\":0.5087987758224942,\"relative-y\":0.45535714285714285,\"relative-x2\":0.5087987758224942,\"relative-y2\":0.45535714285714285,\"elapse-time\":88.14499992877245},{\"relative-x\":0.45371078806426934,\"relative-y\":0.44285714285714284,\"relative-x2\":0.45371078806426934,\"relative-y2\":0.44285714285714284,\"elapse-time\":169.54499995335937},{\"relative-x\":0.396327467482785,\"relative-y\":0.4660714285714286,\"relative-x2\":0.396327467482785,\"relative-y2\":0.4660714285714286,\"elapse-time\":249.9599999282509},{\"relative-x\":0.6006120887528692,\"relative-y\":0.38660714285714287,\"relative-x2\":0.6006120887528692,\"relative-y2\":0.38660714285714287,\"elapse-time\":329.2499999515712},{\"relative-x\":0.32899770466717676,\"relative-y\":0.4669642857142857,\"relative-x2\":0.32899770466717676,\"relative-y2\":0.4669642857142857,\"elapse-time\":415.294999955222},{\"relative-x\":0.1782708492731446,\"relative-y\":0.4,\"relative-x2\":0.1782708492731446,\"relative-y2\":0.4,\"elapse-time\":489.23499998636544},{\"relative-x\":0.14690130068859986,\"relative-y\":0.4276785714285714,\"relative-x2\":0.14690130068859986,\"relative-y2\":0.4276785714285714,\"elapse-time\":568.5049998573959},{\"relative-x\":0.17903596021423107,\"relative-y\":0.45803571428571427,\"relative-x2\":0.17903596021423107,\"relative-y2\":0.45803571428571427,\"elapse-time\":648.8499999977648},{\"relative-x\":0.22800306044376434,\"relative-y\":0.38125,\"relative-x2\":0.22800306044376434,\"relative-y2\":0.38125,\"elapse-time\":729.2449998203665},{\"relative-x\":0.32134659525631215,\"relative-y\":0.4455357142857143,\"relative-x2\":0.32134659525631215,\"relative-y2\":0.4455357142857143,\"elapse-time\":808.4599999710917}]}","realtrial":true,"trial_type":"binary-choice","trial_index":112,"time_elapsed":291503,"internal_node_id":"0.0-13.21-2.21","browser_name":"Chrome","browser_type":"85.0","subject":"e2tp9d4","interaction":"[]","windowWidth":1307,"windowHight":1120},{"rt":null,"stimulus":"<span id=\"calibration_dot_instruction\"></span>","key_press":null,"trial_type":"html-keyboard-response","trial_index":113,"time_elapsed":292003,"internal_node_id":"0.0-13.22-1.22-0.22","browser_name":"Chrome","browser_type":"85.0","subject":"e2tp9d4","interaction":"[]","windowWidth":1307,"windowHight":1120},{"stimulus":["../img/FoodImages/foodStimulus_45.jpg","../img/FoodImages/foodStimulus_32.jpg"],"left_stimulus":"../img/FoodImages/foodStimulus_45.jpg","right_stimulus":"../img/FoodImages/foodStimulus_32.jpg","rt":351.86000005342066,"key_press":74,"choices":["F","J"],"eyeData":"{\"history\":[{\"relative-x\":0.5019127773527161,\"relative-y\":0.4982142857142857,\"relative-x2\":0.5019127773527161,\"relative-y2\":0.4982142857142857,\"elapse-time\":89.6550000179559},{\"relative-x\":0.5547054322876818,\"relative-y\":0.45803571428571427,\"relative-x2\":0.5547054322876818,\"relative-y2\":0.45803571428571427,\"elapse-time\":168.36999985389411},{\"relative-x\":0.4957918898240245,\"relative-y\":0.4232142857142857,\"relative-x2\":0.4957918898240245,\"relative-y2\":0.4232142857142857,\"elapse-time\":250.08499994874},{\"relative-x\":0.5638867635807192,\"relative-y\":0.46517857142857144,\"relative-x2\":0.5638867635807192,\"relative-y2\":0.46517857142857144,\"elapse-time\":329.67999996617436},{\"relative-x\":0.4881407804131599,\"relative-y\":0.32589285714285715,\"relative-x2\":0.4881407804131599,\"relative-y2\":0.32589285714285715,\"elapse-time\":409.0499999001622},{\"relative-x\":0.7865340474368784,\"relative-y\":0.48839285714285713,\"relative-x2\":0.7865340474368784,\"relative-y2\":0.48839285714285713,\"elapse-time\":491.00999999791384},{\"relative-x\":0.7605202754399388,\"relative-y\":0.3125,\"relative-x2\":0.7605202754399388,\"relative-y2\":0.3125,\"elapse-time\":570.9899999201298},{\"relative-x\":0.7566947207345065,\"relative-y\":0.48125,\"relative-x2\":0.7566947207345065,\"relative-y2\":0.48125,\"elapse-time\":649.6200000401586},{\"relative-x\":0.8332058148431523,\"relative-y\":0.38125,\"relative-x2\":0.8332058148431523,\"relative-y2\":0.38125,\"elapse-time\":729.6100000385195},{\"relative-x\":0.7842387146136189,\"relative-y\":0.4303571428571429,\"relative-x2\":0.7842387146136189,\"relative-y2\":0.4303571428571429,\"elapse-time\":809.635000070557}]}","realtrial":true,"trial_type":"binary-choice","trial_index":114,"time_elapsed":292856,"internal_node_id":"0.0-13.22-2.22","browser_name":"Chrome","browser_type":"85.0","subject":"e2tp9d4","interaction":"[]","windowWidth":1307,"windowHight":1120},{"rt":null,"stimulus":"<span id=\"calibration_dot_instruction\"></span>","key_press":null,"trial_type":"html-keyboard-response","trial_index":115,"time_elapsed":293359,"internal_node_id":"0.0-13.23-1.23-0.23","browser_name":"Chrome","browser_type":"85.0","subject":"e2tp9d4","interaction":"[]","windowWidth":1307,"windowHight":1120},{"stimulus":["../img/FoodImages/foodStimulus_20.jpg","../img/FoodImages/foodStimulus_9.jpg"],"left_stimulus":"../img/FoodImages/foodStimulus_20.jpg","right_stimulus":"../img/FoodImages/foodStimulus_9.jpg","rt":319.49500017799437,"key_press":70,"choices":["F","J"],"eyeData":"{\"history\":[{\"relative-x\":0.4797245600612089,\"relative-y\":0.41696428571428573,\"relative-x2\":0.4797245600612089,\"relative-y2\":0.41696428571428573,\"elapse-time\":88.62000005319715},{\"relative-x\":0.5707727620504973,\"relative-y\":0.4625,\"relative-x2\":0.5707727620504973,\"relative-y2\":0.4625,\"elapse-time\":168.01999998278916},{\"relative-x\":0.5547054322876818,\"relative-y\":0.4294642857142857,\"relative-x2\":0.5547054322876818,\"relative-y2\":0.4294642857142857,\"elapse-time\":248.79000009968877},{\"relative-x\":0.5784238714613619,\"relative-y\":0.4392857142857143,\"relative-x2\":0.5784238714613619,\"relative-y2\":0.4392857142857143,\"elapse-time\":328.47000006586313},{\"relative-x\":0.45371078806426934,\"relative-y\":0.4473214285714286,\"relative-x2\":0.45371078806426934,\"relative-y2\":0.4473214285714286,\"elapse-time\":412.56500012241304},{\"relative-x\":0.3098699311400153,\"relative-y\":0.425,\"relative-x2\":0.3098699311400153,\"relative-y2\":0.425,\"elapse-time\":489.67000003904104},{\"relative-x\":0.26243305279265494,\"relative-y\":0.4294642857142857,\"relative-x2\":0.26243305279265494,\"relative-y2\":0.4294642857142857,\"elapse-time\":571.765000000596},{\"relative-x\":0.26013771996939555,\"relative-y\":0.36964285714285716,\"relative-x2\":0.26013771996939555,\"relative-y2\":0.36964285714285716,\"elapse-time\":649.9300000723451},{\"relative-x\":0.25478194338179033,\"relative-y\":0.4133928571428571,\"relative-x2\":0.25478194338179033,\"relative-y2\":0.4133928571428571,\"elapse-time\":732.8000001143664},{\"relative-x\":0.4483550114766641,\"relative-y\":0.4446428571428571,\"relative-x2\":0.4483550114766641,\"relative-y2\":0.4446428571428571,\"elapse-time\":812.2700001113117}]}","realtrial":true,"trial_type":"binary-choice","trial_index":116,"time_elapsed":294180,"internal_node_id":"0.0-13.23-2.23","browser_name":"Chrome","browser_type":"85.0","subject":"e2tp9d4","interaction":"[]","windowWidth":1307,"windowHight":1120},{"rt":null,"stimulus":"<span id=\"calibration_dot_instruction\"></span>","key_press":null,"trial_type":"html-keyboard-response","trial_index":117,"time_elapsed":294681,"internal_node_id":"0.0-13.24-1.24-0.24","browser_name":"Chrome","browser_type":"85.0","subject":"e2tp9d4","interaction":"[]","windowWidth":1307,"windowHight":1120},{"stimulus":["../img/FoodImages/foodStimulus_3.jpg","../img/FoodImages/foodStimulus_27.jpg"],"left_stimulus":"../img/FoodImages/foodStimulus_3.jpg","right_stimulus":"../img/FoodImages/foodStimulus_27.jpg","rt":534.95500003919,"key_press":74,"choices":["F","J"],"eyeData":"{\"history\":[{\"relative-x\":0.5493496557000765,\"relative-y\":0.5035714285714286,\"relative-x2\":0.5493496557000765,\"relative-y2\":0.5035714285714286,\"elapse-time\":90.72500001639128},{\"relative-x\":0.5807192042846213,\"relative-y\":0.45,\"relative-x2\":0.5807192042846213,\"relative-y2\":0.45,\"elapse-time\":170.80500000156462},{\"relative-x\":0.540168324407039,\"relative-y\":0.4714285714285714,\"relative-x2\":0.540168324407039,\"relative-y2\":0.4714285714285714,\"elapse-time\":252.76999990455806},{\"relative-x\":0.4667176740627391,\"relative-y\":0.40089285714285716,\"relative-x2\":0.4667176740627391,\"relative-y2\":0.40089285714285716,\"elapse-time\":330.0349998753518},{\"relative-x\":0.44376434583014535,\"relative-y\":0.4473214285714286,\"relative-x2\":0.44376434583014535,\"relative-y2\":0.4473214285714286,\"elapse-time\":413.2650000974536},{\"relative-x\":0.7268553940321346,\"relative-y\":0.47232142857142856,\"relative-x2\":0.7268553940321346,\"relative-y2\":0.47232142857142856,\"elapse-time\":492.094999877736},{\"relative-x\":0.7482785003825555,\"relative-y\":0.3821428571428571,\"relative-x2\":0.7482785003825555,\"relative-y2\":0.3821428571428571,\"elapse-time\":574.8950000852346},{\"relative-x\":0.7299158377964805,\"relative-y\":0.4133928571428571,\"relative-x2\":0.7299158377964805,\"relative-y2\":0.4133928571428571,\"elapse-time\":654.8599998932332},{\"relative-x\":0.7735271614384086,\"relative-y\":0.34017857142857144,\"relative-x2\":0.7735271614384086,\"relative-y2\":0.34017857142857144,\"elapse-time\":730.9149999637157},{\"relative-x\":0.8500382555470544,\"relative-y\":0.37142857142857144,\"relative-x2\":0.8500382555470544,\"relative-y2\":0.37142857142857144,\"elapse-time\":815.0049999821931},{\"relative-x\":0.8148431522570773,\"relative-y\":0.36428571428571427,\"relative-x2\":0.8148431522570773,\"relative-y2\":0.36428571428571427,\"elapse-time\":891.594999935478},{\"relative-x\":0.6885998469778117,\"relative-y\":0.4767857142857143,\"relative-x2\":0.6885998469778117,\"relative-y2\":0.4767857142857143,\"elapse-time\":970.0799998827279}]}","realtrial":true,"trial_type":"binary-choice","trial_index":118,"time_elapsed":295718,"internal_node_id":"0.0-13.24-2.24","browser_name":"Chrome","browser_type":"85.0","subject":"e2tp9d4","interaction":"[]","windowWidth":1307,"windowHight":1120},{"validationPoints":"[{\"x\":\"50%\",\"y\":\"20%\",\"valid\":true,\"hitRatio\":0.9391304347826087},{\"x\":\"20%\",\"y\":\"50%\",\"valid\":true,\"hitRatio\":0.7807017543859649},{\"x\":\"50%\",\"y\":\"50%\",\"valid\":true,\"hitRatio\":0.9464285714285714}]","accuracy":1,"trial_type":"eye-tracking","trial_index":119,"time_elapsed":305761,"internal_node_id":"0.0-13.25-0.25-0.25","browser_name":"Chrome","browser_type":"85.0","subject":"e2tp9d4","interaction":"[]","windowWidth":1307,"windowHight":1120}]