[{"stimulus":["../img/FoodImages/foodStimulus_16.jpg","../img/FoodImages/foodStimulus_42.jpg"],"left_stimulus":"../img/FoodImages/foodStimulus_16.jpg","right_stimulus":"../img/FoodImages/foodStimulus_42.jpg","rt":346.8649999704212,"key_press":70,"choices":["F","J"],"eyeData":"{\"history\":[{\"relative-x\":0.5332823259372609,\"relative-y\":0.4785714285714286,\"relative-x2\":0.5332823259372609,\"relative-y2\":0.4785714285714286,\"elapse-time\":90.99000017158687},{\"relative-x\":0.5325172149961744,\"relative-y\":0.46875,\"relative-x2\":0.5325172149961744,\"relative-y2\":0.46875,\"elapse-time\":171.65999999269843},{\"relative-x\":0.5424636572302984,\"relative-y\":0.5205357142857143,\"relative-x2\":0.5424636572302984,\"relative-y2\":0.5205357142857143,\"elapse-time\":250.82499999552965},{\"relative-x\":0.5110941086457537,\"relative-y\":0.3892857142857143,\"relative-x2\":0.5110941086457537,\"relative-y2\":0.3892857142857143,\"elapse-time\":334.0950000565499},{\"relative-x\":0.3221117061973986,\"relative-y\":0.4758928571428571,\"relative-x2\":0.3221117061973986,\"relative-y2\":0.4758928571428571,\"elapse-time\":412.2400002088398},{\"relative-x\":0.1545524100994644,\"relative-y\":0.39107142857142857,\"relative-x2\":0.1545524100994644,\"relative-y2\":0.39107142857142857,\"elapse-time\":491.9250002130866},{\"relative-x\":0.1874521805661821,\"relative-y\":0.4330357142857143,\"relative-x2\":0.1874521805661821,\"relative-y2\":0.4330357142857143,\"elapse-time\":570.9800000768155},{\"relative-x\":0.23718439173680184,\"relative-y\":0.4419642857142857,\"relative-x2\":0.23718439173680184,\"relative-y2\":0.4419642857142857,\"elapse-time\":651.7549999989569},{\"relative-x\":0.28768171384850805,\"relative-y\":0.3964285714285714,\"relative-x2\":0.28768171384850805,\"relative-y2\":0.3964285714285714,\"elapse-time\":733.0800001509488},{\"relative-x\":0.6648814078041316,\"relative-y\":0.8973214285714286,\"relative-x2\":0.6648814078041316,\"relative-y2\":0.8973214285714286,\"elapse-time\":811.7200001142919}]}","realtrial":true,"trial_type":"binary-choice","trial_index":120,"time_elapsed":306614,"internal_node_id":"0.0-13.25-2.25","browser_name":"Chrome","browser_type":"85.0","subject":"e2tp9d4","interaction":"[]","windowWidth":1307,"windowHight":1120},{"rt":null,"stimulus":"<span id=\"calibration_dot_instruction\"></span>","key_press":null,"trial_type":"html-keyboard-response","trial_index":121,"time_elapsed":307120,"internal_node_id":"0.0-13.26-1.26-0.26","browser_name":"Chrome","browser_type":"85.0","subject":"e2tp9d4","interaction":"[]","windowWidth":1307,"windowHight":1120},{"stimulus":["../img/FoodImages/foodStimulus_41.jpg","../img/FoodImages/foodStimulus_9.jpg"],"left_stimulus":"../img/FoodImages/foodStimulus_41.jpg","right_stimulus":"../img/FoodImages/foodStimulus_9.jpg","rt":2206.755000166595,"key_press":74,"choices":["F","J"],"eyeData":"{\"history\":[{\"relative-x\":0.5248661055853099,\"relative-y\":0.4767857142857143,\"relative-x2\":0.5248661055853099,\"relative-y2\":0.4767857142857143,\"elapse-time\":92.96000003814697},{\"relative-x\":0.5195103289977047,\"relative-y\":0.41875,\"relative-x2\":0.5195103289977047,\"relative-y2\":0.41875,\"elapse-time\":173.4550001565367},{\"relative-x\":0.4391736801836266,\"relative-y\":0.5285714285714286,\"relative-x2\":0.4391736801836266,\"relative-y2\":0.5285714285714286,\"elapse-time\":249.5950001757592},{\"relative-x\":0.5876052027543994,\"relative-y\":0.4625,\"relative-x2\":0.5876052027543994,\"relative-y2\":0.4625,\"elapse-time\":332.46500021778047},{\"relative-x\":0.32670237184391737,\"relative-y\":0.3991071428571429,\"relative-x2\":0.32670237184391737,\"relative-y2\":0.3991071428571429,\"elapse-time\":414.5600001793355},{\"relative-x\":0.3190512624330528,\"relative-y\":0.4160714285714286,\"relative-x2\":0.3190512624330528,\"relative-y2\":0.4160714285714286,\"elapse-time\":493.8350000884384},{\"relative-x\":0.22417750573833206,\"relative-y\":0.47410714285714284,\"relative-x2\":0.22417750573833206,\"relative-y2\":0.47410714285714284,\"elapse-time\":572.3050001543015},{\"relative-x\":0.29839326702371843,\"relative-y\":0.43839285714285714,\"relative-x2\":0.29839326702371843,\"relative-y2\":0.43839285714285714,\"elapse-time\":650.4200000781566},{\"relative-x\":0.7398622800306044,\"relative-y\":0.5285714285714286,\"relative-x2\":0.7398622800306044,\"relative-y2\":0.5285714285714286,\"elapse-time\":735.9200001228601},{\"relative-x\":0.7750573833205815,\"relative-y\":0.5633928571428571,\"relative-x2\":0.7750573833205815,\"relative-y2\":0.5633928571428571,\"elapse-time\":813.3600000292063},{\"relative-x\":0.7628156082631982,\"relative-y\":0.48482142857142857,\"relative-x2\":0.7628156082631982,\"relative-y2\":0.48482142857142857,\"elapse-time\":891.5100002195686},{\"relative-x\":0.7260902830910482,\"relative-y\":0.39732142857142855,\"relative-x2\":0.7260902830910482,\"relative-y2\":0.39732142857142855,\"elapse-time\":972.5850000977516},{\"relative-x\":0.8071920428462127,\"relative-y\":0.3517857142857143,\"relative-x2\":0.8071920428462127,\"relative-y2\":0.3517857142857143,\"elapse-time\":1049.5450000744313},{\"relative-x\":0.7888293802601377,\"relative-y\":0.38125,\"relative-x2\":0.7888293802601377,\"relative-y2\":0.38125,\"elapse-time\":1135.4150001425296},{\"relative-x\":0.7697016067329763,\"relative-y\":0.3392857142857143,\"relative-x2\":0.7697016067329763,\"relative-y2\":0.3392857142857143,\"elapse-time\":1214.4450000487268},{\"relative-x\":0.7850038255547054,\"relative-y\":0.4446428571428571,\"relative-x2\":0.7850038255547054,\"relative-y2\":0.4446428571428571,\"elapse-time\":1289.4950001500547},{\"relative-x\":0.6411629686304514,\"relative-y\":0.4294642857142857,\"relative-x2\":0.6411629686304514,\"relative-y2\":0.4294642857142857,\"elapse-time\":1372.0800001174212},{\"relative-x\":0.8638102524866106,\"relative-y\":0.35535714285714287,\"relative-x2\":0.8638102524866106,\"relative-y2\":0.35535714285714287,\"elapse-time\":1450.3900001291186},{\"relative-x\":0.9273144605967866,\"relative-y\":0.5464285714285714,\"relative-x2\":0.9273144605967866,\"relative-y2\":0.5464285714285714,\"elapse-time\":1534.5950000919402},{\"relative-x\":0.9303749043611323,\"relative-y\":0.4473214285714286,\"relative-x2\":0.9303749043611323,\"relative-y2\":0.4473214285714286,\"elapse-time\":1613.6950000654906},{\"relative-x\":0.49196633511859217,\"relative-y\":0.5491071428571429,\"relative-x2\":0.49196633511859217,\"relative-y2\":0.5491071428571429,\"elapse-time\":1689.8100001271814},{\"relative-x\":0.3343534812547819,\"relative-y\":0.6446428571428572,\"relative-x2\":0.3343534812547819,\"relative-y2\":0.6446428571428572,\"elapse-time\":1773.350000148639},{\"relative-x\":0.28003060443764344,\"relative-y\":0.5830357142857143,\"relative-x2\":0.28003060443764344,\"relative-y2\":0.5830357142857143,\"elapse-time\":1849.1850001737475},{\"relative-x\":0.48967100229533284,\"relative-y\":0.5,\"relative-x2\":0.48967100229533284,\"relative-y2\":0.5,\"elapse-time\":1937.5150001142174},{\"relative-x\":0.8048967100229534,\"relative-y\":0.45267857142857143,\"relative-x2\":0.8048967100229534,\"relative-y2\":0.45267857142857143,\"elapse-time\":2012.6000000163913},{\"relative-x\":0.7697016067329763,\"relative-y\":0.4392857142857143,\"relative-x2\":0.7697016067329763,\"relative-y2\":0.4392857142857143,\"elapse-time\":2091.620000079274},{\"relative-x\":0.720734506503443,\"relative-y\":0.4276785714285714,\"relative-x2\":0.720734506503443,\"relative-y2\":0.4276785714285714,\"elapse-time\":2169.685000088066},{\"relative-x\":0.8232593726090283,\"relative-y\":0.5098214285714285,\"relative-x2\":0.8232593726090283,\"relative-y2\":0.5098214285714285,\"elapse-time\":2260.3000001981854},{\"relative-x\":0.8332058148431523,\"relative-y\":0.5392857142857143,\"relative-x2\":0.8332058148431523,\"relative-y2\":0.5392857142857143,\"elapse-time\":2335.0850001443177},{\"relative-x\":0.764345830145371,\"relative-y\":0.4446428571428571,\"relative-x2\":0.764345830145371,\"relative-y2\":0.4446428571428571,\"elapse-time\":2412.840000120923},{\"relative-x\":0.8553940321346595,\"relative-y\":0.5428571428571428,\"relative-x2\":0.8553940321346595,\"relative-y2\":0.5428571428571428,\"elapse-time\":2493.430000031367},{\"relative-x\":0.7360367253251722,\"relative-y\":0.4303571428571429,\"relative-x2\":0.7360367253251722,\"relative-y2\":0.4303571428571429,\"elapse-time\":2572.9400001000613},{\"relative-x\":0.8783473603672532,\"relative-y\":0.4982142857142857,\"relative-x2\":0.8783473603672532,\"relative-y2\":0.4982142857142857,\"elapse-time\":2649.5450001675636}]}","realtrial":true,"trial_type":"binary-choice","trial_index":122,"time_elapsed":309828,"internal_node_id":"0.0-13.26-2.26","browser_name":"Chrome","browser_type":"85.0","subject":"e2tp9d4","interaction":"[]","windowWidth":1307,"windowHight":1120},{"rt":null,"stimulus":"<span id=\"calibration_dot_instruction\"></span>","key_press":null,"trial_type":"html-keyboard-response","trial_index":123,"time_elapsed":310328,"internal_node_id":"0.0-13.27-1.27-0.27","browser_name":"Chrome","browser_type":"85.0","subject":"e2tp9d4","interaction":"[]","windowWidth":1307,"windowHight":1120},{"stimulus":["../img/FoodImages/foodStimulus_42.jpg","../img/FoodImages/foodStimulus_6.jpg"],"left_stimulus":"../img/FoodImages/foodStimulus_42.jpg","right_stimulus":"../img/FoodImages/foodStimulus_6.jpg","rt":1492.6550001837313,"key_press":70,"choices":["F","J"],"eyeData":"{\"history\":[{\"relative-x\":0.6013771996939556,\"relative-y\":0.3964285714285714,\"relative-x2\":0.6013771996939556,\"relative-y2\":0.3964285714285714,\"elapse-time\":93.84999983012676},{\"relative-x\":0.5493496557000765,\"relative-y\":0.4857142857142857,\"relative-x2\":0.5493496557000765,\"relative-y2\":0.4857142857142857,\"elapse-time\":172.6049999706447},{\"relative-x\":0.4407039020657995,\"relative-y\":0.4392857142857143,\"relative-x2\":0.4407039020657995,\"relative-y2\":0.4392857142857143,\"elapse-time\":251.26499985344708},{\"relative-x\":0.32670237184391737,\"relative-y\":0.4303571428571429,\"relative-x2\":0.32670237184391737,\"relative-y2\":0.4303571428571429,\"elapse-time\":332.6449999585748},{\"relative-x\":0.25095638867635806,\"relative-y\":0.4392857142857143,\"relative-x2\":0.25095638867635806,\"relative-y2\":0.4392857142857143,\"elapse-time\":409.77999987080693},{\"relative-x\":0.30145371078806427,\"relative-y\":0.5044642857142857,\"relative-x2\":0.30145371078806427,\"relative-y2\":0.5044642857142857,\"elapse-time\":494.21999999322},{\"relative-x\":0.39403213465952563,\"relative-y\":0.42589285714285713,\"relative-x2\":0.39403213465952563,\"relative-y2\":0.42589285714285713,\"elapse-time\":572.3749999888241},{\"relative-x\":0.38791124713083397,\"relative-y\":0.4455357142857143,\"relative-x2\":0.38791124713083397,\"relative-y2\":0.4455357142857143,\"elapse-time\":652.5649998802692},{\"relative-x\":0.7635807192042846,\"relative-y\":0.5017857142857143,\"relative-x2\":0.7635807192042846,\"relative-y2\":0.5017857142857143,\"elapse-time\":732.6899999752641},{\"relative-x\":0.901300688599847,\"relative-y\":0.4901785714285714,\"relative-x2\":0.901300688599847,\"relative-y2\":0.4901785714285714,\"elapse-time\":809.8449998069555},{\"relative-x\":0.8102524866105585,\"relative-y\":0.40982142857142856,\"relative-x2\":0.8102524866105585,\"relative-y2\":0.40982142857142856,\"elapse-time\":891.6999998036772},{\"relative-x\":0.8653404743687835,\"relative-y\":0.3464285714285714,\"relative-x2\":0.8653404743687835,\"relative-y2\":0.3464285714285714,\"elapse-time\":968.5999997891486},{\"relative-x\":0.35577658760520275,\"relative-y\":0.4446428571428571,\"relative-x2\":0.35577658760520275,\"relative-y2\":0.4446428571428571,\"elapse-time\":1049.7999999206513},{\"relative-x\":0.20275439938791126,\"relative-y\":0.49464285714285716,\"relative-x2\":0.20275439938791126,\"relative-y2\":0.49464285714285716,\"elapse-time\":1132.814999902621},{\"relative-x\":0.19510328997704668,\"relative-y\":0.3991071428571429,\"relative-x2\":0.19510328997704668,\"relative-y2\":0.3991071428571429,\"elapse-time\":1211.7499997839332},{\"relative-x\":0.12700841622035194,\"relative-y\":0.45535714285714285,\"relative-x2\":0.12700841622035194,\"relative-y2\":0.45535714285714285,\"elapse-time\":1293.3149999007583},{\"relative-x\":0.1009946442234124,\"relative-y\":0.43660714285714286,\"relative-x2\":0.1009946442234124,\"relative-y2\":0.43660714285714286,\"elapse-time\":1370.6949998158962},{\"relative-x\":0.08722264728385616,\"relative-y\":0.42857142857142855,\"relative-x2\":0.08722264728385616,\"relative-y2\":0.42857142857142855,\"elapse-time\":1451.2349998112768},{\"relative-x\":0.2364192807957154,\"relative-y\":0.475,\"relative-x2\":0.2364192807957154,\"relative-y2\":0.475,\"elapse-time\":1535.924999974668},{\"relative-x\":0.25095638867635806,\"relative-y\":0.3919642857142857,\"relative-x2\":0.25095638867635806,\"relative-y2\":0.3919642857142857,\"elapse-time\":1608.9449999853969},{\"relative-x\":0.22111706197398623,\"relative-y\":0.3892857142857143,\"relative-x2\":0.22111706197398623,\"relative-y2\":0.3892857142857143,\"elapse-time\":1690.1899999938905},{\"relative-x\":0.19739862280030604,\"relative-y\":0.43392857142857144,\"relative-x2\":0.19739862280030604,\"relative-y2\":0.43392857142857144,\"elapse-time\":1769.41499998793},{\"relative-x\":0.21882172915072687,\"relative-y\":0.41964285714285715,\"relative-x2\":0.21882172915072687,\"relative-y2\":0.41964285714285715,\"elapse-time\":1853.0199998058379},{\"relative-x\":0.22035195103289976,\"relative-y\":0.3964285714285714,\"relative-x2\":0.22035195103289976,\"relative-y2\":0.3964285714285714,\"elapse-time\":1932.5349999126047}]}","realtrial":true,"trial_type":"binary-choice","trial_index":124,"time_elapsed":312322,"internal_node_id":"0.0-13.27-2.27","browser_name":"Chrome","browser_type":"85.0","subject":"e2tp9d4","interaction":"[]","windowWidth":1307,"windowHight":1120},{"rt":null,"stimulus":"<span id=\"calibration_dot_instruction\"></span>","key_press":null,"trial_type":"html-keyboard-response","trial_index":125,"time_elapsed":312826,"internal_node_id":"0.0-13.28-1.28-0.28","browser_name":"Chrome","browser_type":"85.0","subject":"e2tp9d4","interaction":"[]","windowWidth":1307,"windowHight":1120},{"stimulus":["../img/FoodImages/foodStimulus_42.jpg","../img/FoodImages/foodStimulus_9.jpg"],"left_stimulus":"../img/FoodImages/foodStimulus_42.jpg","right_stimulus":"../img/FoodImages/foodStimulus_9.jpg","rt":894.8400001972914,"key_press":70,"choices":["F","J"],"eyeData":"{\"history\":[{\"relative-x\":0.8301453710788065,\"relative-y\":0.5,\"relative-x2\":0.8301453710788065,\"relative-y2\":0.5,\"elapse-time\":91.04999992996454},{\"relative-x\":0.4521805661820964,\"relative-y\":0.46517857142857144,\"relative-x2\":0.4521805661820964,\"relative-y2\":0.46517857142857144,\"elapse-time\":172.95499984174967},{\"relative-x\":0.46442234123947973,\"relative-y\":0.41964285714285715,\"relative-x2\":0.46442234123947973,\"relative-y2\":0.41964285714285715,\"elapse-time\":252.26999982260168},{\"relative-x\":0.5271614384085692,\"relative-y\":0.47232142857142856,\"relative-x2\":0.5271614384085692,\"relative-y2\":0.47232142857142856,\"elapse-time\":332.25999982096255},{\"relative-x\":0.5371078806426932,\"relative-y\":0.41696428571428573,\"relative-x2\":0.5371078806426932,\"relative-y2\":0.41696428571428573,\"elapse-time\":410.35999986343086},{\"relative-x\":0.8018362662586075,\"relative-y\":0.5580357142857143,\"relative-x2\":0.8018362662586075,\"relative-y2\":0.5580357142857143,\"elapse-time\":495.14000001363456},{\"relative-x\":0.6824789594491201,\"relative-y\":0.5633928571428571,\"relative-x2\":0.6824789594491201,\"relative-y2\":0.5633928571428571,\"elapse-time\":573.1249998789281},{\"relative-x\":0.7796480489671003,\"relative-y\":0.45089285714285715,\"relative-x2\":0.7796480489671003,\"relative-y2\":0.45089285714285715,\"elapse-time\":652.2849998436868},{\"relative-x\":0.2769701606732976,\"relative-y\":0.4276785714285714,\"relative-x2\":0.2769701606732976,\"relative-y2\":0.4276785714285714,\"elapse-time\":732.6650000177324},{\"relative-x\":0.2570772762050497,\"relative-y\":0.4589285714285714,\"relative-x2\":0.2570772762050497,\"relative-y2\":0.4589285714285714,\"elapse-time\":809.5249999314547},{\"relative-x\":0.2616679418515685,\"relative-y\":0.34017857142857144,\"relative-x2\":0.2616679418515685,\"relative-y2\":0.34017857142857144,\"elapse-time\":893.3749999850988},{\"relative-x\":0.3764345830145371,\"relative-y\":0.4294642857142857,\"relative-x2\":0.3764345830145371,\"relative-y2\":0.4294642857142857,\"elapse-time\":972.7549999952316},{\"relative-x\":0.6342769701606733,\"relative-y\":0.3919642857142857,\"relative-x2\":0.6342769701606733,\"relative-y2\":0.3919642857142857,\"elapse-time\":1051.7599999438971},{\"relative-x\":0.8615149196633511,\"relative-y\":0.4035714285714286,\"relative-x2\":0.8615149196633511,\"relative-y2\":0.4035714285714286,\"elapse-time\":1130.5149998515844},{\"relative-x\":0.6993114001530222,\"relative-y\":0.32857142857142857,\"relative-x2\":0.6993114001530222,\"relative-y2\":0.32857142857142857,\"elapse-time\":1210.0649999920279},{\"relative-x\":0.6541698546289212,\"relative-y\":0.29910714285714285,\"relative-x2\":0.6541698546289212,\"relative-y2\":0.29910714285714285,\"elapse-time\":1296.5799998492002},{\"relative-x\":0.6266258607498087,\"relative-y\":0.35982142857142857,\"relative-x2\":0.6266258607498087,\"relative-y2\":0.35982142857142857,\"elapse-time\":1372.884999960661}]}","realtrial":true,"trial_type":"binary-choice","trial_index":126,"time_elapsed":314224,"internal_node_id":"0.0-13.28-2.28","browser_name":"Chrome","browser_type":"85.0","subject":"e2tp9d4","interaction":"[]","windowWidth":1307,"windowHight":1120},{"rt":null,"stimulus":"<span id=\"calibration_dot_instruction\"></span>","key_press":null,"trial_type":"html-keyboard-response","trial_index":127,"time_elapsed":314727,"internal_node_id":"0.0-13.29-1.29-0.29","browser_name":"Chrome","browser_type":"85.0","subject":"e2tp9d4","interaction":"[]","windowWidth":1307,"windowHight":1120},{"stimulus":["../img/FoodImages/foodStimulus_42.jpg","../img/FoodImages/foodStimulus_20.jpg"],"left_stimulus":"../img/FoodImages/foodStimulus_42.jpg","right_stimulus":"../img/FoodImages/foodStimulus_20.jpg","rt":1339.6050001028925,"key_press":70,"choices":["F","J"],"eyeData":"{\"history\":[{\"relative-x\":0.234123947972456,\"relative-y\":0.43392857142857144,\"relative-x2\":0.234123947972456,\"relative-y2\":0.43392857142857144,\"elapse-time\":92.35000004991889},{\"relative-x\":0.43152257077276207,\"relative-y\":0.35446428571428573,\"relative-x2\":0.43152257077276207,\"relative-y2\":0.35446428571428573,\"elapse-time\":171.83999996632338},{\"relative-x\":0.531752104055088,\"relative-y\":0.3625,\"relative-x2\":0.531752104055088,\"relative-y2\":0.3625,\"elapse-time\":252.48000002466142},{\"relative-x\":0.3856159143075746,\"relative-y\":0.38125,\"relative-x2\":0.3856159143075746,\"relative-y2\":0.38125,\"elapse-time\":331.91499998793006},{\"relative-x\":0.4628921193573068,\"relative-y\":0.35446428571428573,\"relative-x2\":0.4628921193573068,\"relative-y2\":0.35446428571428573,\"elapse-time\":410.789999878034},{\"relative-x\":0.26013771996939555,\"relative-y\":0.39285714285714285,\"relative-x2\":0.26013771996939555,\"relative-y2\":0.39285714285714285,\"elapse-time\":494.01500006206334},{\"relative-x\":0.2287681713848508,\"relative-y\":0.3455357142857143,\"relative-x2\":0.2287681713848508,\"relative-y2\":0.3455357142857143,\"elapse-time\":570.3799999319017},{\"relative-x\":0.21040550879877581,\"relative-y\":0.38660714285714287,\"relative-x2\":0.21040550879877581,\"relative-y2\":0.38660714285714287,\"elapse-time\":653.3550000749528},{\"relative-x\":0.7727620504973222,\"relative-y\":0.5705357142857143,\"relative-x2\":0.7727620504973222,\"relative-y2\":0.5705357142857143,\"elapse-time\":733.9099999517202},{\"relative-x\":0.9127773527161438,\"relative-y\":0.4616071428571429,\"relative-x2\":0.9127773527161438,\"relative-y2\":0.4616071428571429,\"elapse-time\":811.6349999327213},{\"relative-x\":0.9035960214231064,\"relative-y\":0.38035714285714284,\"relative-x2\":0.9035960214231064,\"relative-y2\":0.38035714285714284,\"elapse-time\":892.4100000876933},{\"relative-x\":0.7651109410864575,\"relative-y\":0.32857142857142857,\"relative-x2\":0.7651109410864575,\"relative-y2\":0.32857142857142857,\"elapse-time\":972.3100000992417},{\"relative-x\":0.7995409334353482,\"relative-y\":0.3375,\"relative-x2\":0.7995409334353482,\"relative-y2\":0.3375,\"elapse-time\":1052.4150000419468},{\"relative-x\":0.7046671767406274,\"relative-y\":0.35714285714285715,\"relative-x2\":0.7046671767406274,\"relative-y2\":0.35714285714285715,\"elapse-time\":1134.0799999888986},{\"relative-x\":0.7230298393267024,\"relative-y\":0.3982142857142857,\"relative-x2\":0.7230298393267024,\"relative-y2\":0.3982142857142857,\"elapse-time\":1209.3549999408424},{\"relative-x\":0.2861514919663351,\"relative-y\":0.40535714285714286,\"relative-x2\":0.2861514919663351,\"relative-y2\":0.40535714285714286,\"elapse-time\":1292.3049998935312},{\"relative-x\":0.2739097169089518,\"relative-y\":0.325,\"relative-x2\":0.2739097169089518,\"relative-y2\":0.325,\"elapse-time\":1370.2499999199063},{\"relative-x\":0.1384850803366488,\"relative-y\":0.42142857142857143,\"relative-x2\":0.1384850803366488,\"relative-y2\":0.42142857142857143,\"elapse-time\":1451.9599999766797},{\"relative-x\":0.15378729915837797,\"relative-y\":0.4330357142857143,\"relative-x2\":0.15378729915837797,\"relative-y2\":0.4330357142857143,\"elapse-time\":1531.5900000277907},{\"relative-x\":0.10405508798775823,\"relative-y\":0.41964285714285715,\"relative-x2\":0.10405508798775823,\"relative-y2\":0.41964285714285715,\"elapse-time\":1610.9949999954551},{\"relative-x\":0.0665646518745218,\"relative-y\":0.3339285714285714,\"relative-x2\":0.0665646518745218,\"relative-y2\":0.3339285714285714,\"elapse-time\":1693.2250000536442},{\"relative-x\":0.12853863810252486,\"relative-y\":0.4125,\"relative-x2\":0.12853863810252486,\"relative-y2\":0.4125,\"elapse-time\":1771.5149999130517}]}","realtrial":true,"trial_type":"binary-choice","trial_index":128,"time_elapsed":316568,"internal_node_id":"0.0-13.29-2.29","browser_name":"Chrome","browser_type":"85.0","subject":"e2tp9d4","interaction":"[]","windowWidth":1307,"windowHight":1120},{"validationPoints":"[{\"x\":\"20%\",\"y\":\"80%\",\"valid\":false,\"hitRatio\":0.30434782608695654},{\"x\":\"65%\",\"y\":\"65%\",\"valid\":true,\"hitRatio\":0.7657657657657657},{\"x\":\"50%\",\"y\":\"50%\",\"valid\":true,\"hitRatio\":0.7931034482758621}]","accuracy":0.6666666666666666,"trial_type":"eye-tracking","trial_index":129,"time_elapsed":326607,"internal_node_id":"0.0-13.30-0.30-0.30","browser_name":"Chrome","browser_type":"85.0","subject":"e2tp9d4","interaction":"[]","windowWidth":1307,"windowHight":1120},{"stimulus":["../img/FoodImages/foodStimulus_27.jpg","../img/FoodImages/foodStimulus_45.jpg"],"left_stimulus":"../img/FoodImages/foodStimulus_27.jpg","right_stimulus":"../img/FoodImages/foodStimulus_45.jpg","rt":2814.5800000056624,"key_press":74,"choices":["F","J"],"eyeData":"{\"history\":[{\"relative-x\":0.5378729915837797,\"relative-y\":0.5241071428571429,\"relative-x2\":0.5378729915837797,\"relative-y2\":0.5241071428571429,\"elapse-time\":90.08500003255904},{\"relative-x\":0.5026778882938026,\"relative-y\":0.425,\"relative-x2\":0.5026778882938026,\"relative-y2\":0.425,\"elapse-time\":171.49000009521842},{\"relative-x\":0.4544758990053558,\"relative-y\":0.3732142857142857,\"relative-x2\":0.4544758990053558,\"relative-y2\":0.3732142857142857,\"elapse-time\":251.27500016242266},{\"relative-x\":0.5271614384085692,\"relative-y\":0.425,\"relative-x2\":0.5271614384085692,\"relative-y2\":0.425,\"elapse-time\":330.78499999828637},{\"relative-x\":0.47360367253251723,\"relative-y\":0.40089285714285716,\"relative-x2\":0.47360367253251723,\"relative-y2\":0.40089285714285716,\"elapse-time\":412.6800000667572},{\"relative-x\":0.21346595256312165,\"relative-y\":0.48928571428571427,\"relative-x2\":0.21346595256312165,\"relative-y2\":0.48928571428571427,\"elapse-time\":490.6950001604855},{\"relative-x\":0.15837796480489671,\"relative-y\":0.3919642857142857,\"relative-x2\":0.15837796480489671,\"relative-y2\":0.3919642857142857,\"elapse-time\":571.5400001499802},{\"relative-x\":0.20275439938791126,\"relative-y\":0.39375,\"relative-x2\":0.20275439938791126,\"relative-y2\":0.39375,\"elapse-time\":650.910000083968},{\"relative-x\":0.22417750573833206,\"relative-y\":0.4133928571428571,\"relative-x2\":0.22417750573833206,\"relative-y2\":0.4133928571428571,\"elapse-time\":733.4549999795854},{\"relative-x\":0.8714613618974751,\"relative-y\":0.4232142857142857,\"relative-x2\":0.8714613618974751,\"relative-y2\":0.4232142857142857,\"elapse-time\":810.0050000939518},{\"relative-x\":0.8454475899005356,\"relative-y\":0.41160714285714284,\"relative-x2\":0.8454475899005356,\"relative-y2\":0.41160714285714284,\"elapse-time\":889.9950000923127},{\"relative-x\":0.8508033664881408,\"relative-y\":0.3732142857142857,\"relative-x2\":0.8508033664881408,\"relative-y2\":0.3732142857142857,\"elapse-time\":972.3849999718368},{\"relative-x\":0.7934200459066565,\"relative-y\":0.3919642857142857,\"relative-x2\":0.7934200459066565,\"relative-y2\":0.3919642857142857,\"elapse-time\":1052.834999980405},{\"relative-x\":0.8041315990818668,\"relative-y\":0.37142857142857144,\"relative-x2\":0.8041315990818668,\"relative-y2\":0.37142857142857144,\"elapse-time\":1133.830000180751},{\"relative-x\":0.40780413159908185,\"relative-y\":0.4357142857142857,\"relative-x2\":0.40780413159908185,\"relative-y2\":0.4357142857142857,\"elapse-time\":1211.9500001426786},{\"relative-x\":0.21652639632746748,\"relative-y\":0.43125,\"relative-x2\":0.21652639632746748,\"relative-y2\":0.43125,\"elapse-time\":1290.3950000181794},{\"relative-x\":0.1315990818668707,\"relative-y\":0.40625,\"relative-x2\":0.1315990818668707,\"relative-y2\":0.40625,\"elapse-time\":1371.4900000486523},{\"relative-x\":0.22264728385615914,\"relative-y\":0.48035714285714287,\"relative-x2\":0.22264728385615914,\"relative-y2\":0.48035714285714287,\"elapse-time\":1450.6749999709427},{\"relative-x\":0.2563121652639633,\"relative-y\":0.4401785714285714,\"relative-x2\":0.2563121652639633,\"relative-y2\":0.4401785714285714,\"elapse-time\":1530.8550000190735},{\"relative-x\":0.28079571537872994,\"relative-y\":0.5160714285714286,\"relative-x2\":0.28079571537872994,\"relative-y2\":0.5160714285714286,\"elapse-time\":1613.3450001943856},{\"relative-x\":0.31981637337413926,\"relative-y\":0.48482142857142857,\"relative-x2\":0.31981637337413926,\"relative-y2\":0.48482142857142857,\"elapse-time\":1691.8850000947714},{\"relative-x\":0.32364192807957154,\"relative-y\":0.4142857142857143,\"relative-x2\":0.32364192807957154,\"relative-y2\":0.4142857142857143,\"elapse-time\":1772.2750001121312},{\"relative-x\":0.19127773527161437,\"relative-y\":0.4133928571428571,\"relative-x2\":0.19127773527161437,\"relative-y2\":0.4133928571428571,\"elapse-time\":1851.0700000915676},{\"relative-x\":0.20734506503442998,\"relative-y\":0.40625,\"relative-x2\":0.20734506503442998,\"relative-y2\":0.40625,\"elapse-time\":1932.8400001395494},{\"relative-x\":0.29456771231828616,\"relative-y\":0.475,\"relative-x2\":0.29456771231828616,\"relative-y2\":0.475,\"elapse-time\":2012.2800001408905},{\"relative-x\":0.782708492731446,\"relative-y\":0.4607142857142857,\"relative-x2\":0.782708492731446,\"relative-y2\":0.4607142857142857,\"elapse-time\":2090.3950000647455},{\"relative-x\":0.8905891354246366,\"relative-y\":0.40714285714285714,\"relative-x2\":0.8905891354246366,\"relative-y2\":0.40714285714285714,\"elapse-time\":2171.095000114292},{\"relative-x\":0.8691660290742158,\"relative-y\":0.40714285714285714,\"relative-x2\":0.8691660290742158,\"relative-y2\":0.40714285714285714,\"elapse-time\":2274.519999977201},{\"relative-x\":0.8370313695485846,\"relative-y\":0.4080357142857143,\"relative-x2\":0.8370313695485846,\"relative-y2\":0.4080357142857143,\"elapse-time\":2333.5400000214577},{\"relative-x\":0.8163733741392502,\"relative-y\":0.4089285714285714,\"relative-x2\":0.8163733741392502,\"relative-y2\":0.4089285714285714,\"elapse-time\":2413.4750000666827},{\"relative-x\":0.8393267023718439,\"relative-y\":0.40089285714285716,\"relative-x2\":0.8393267023718439,\"relative-y2\":0.40089285714285716,\"elapse-time\":2490.555000025779},{\"relative-x\":0.8270849273144606,\"relative-y\":0.40267857142857144,\"relative-x2\":0.8270849273144606,\"relative-y2\":0.40267857142857144,\"elapse-time\":2569.9450001120567},{\"relative-x\":0.8026013771996939,\"relative-y\":0.3705357142857143,\"relative-x2\":0.8026013771996939,\"relative-y2\":0.3705357142857143,\"elapse-time\":2653.6250000353903},{\"relative-x\":0.8201989288446825,\"relative-y\":0.41785714285714287,\"relative-x2\":0.8201989288446825,\"relative-y2\":0.41785714285714287,\"elapse-time\":2730.900000082329},{\"relative-x\":0.7138485080336648,\"relative-y\":0.35535714285714287,\"relative-x2\":0.7138485080336648,\"relative-y2\":0.35535714285714287,\"elapse-time\":2812.950000166893},{\"relative-x\":0.7260902830910482,\"relative-y\":0.42678571428571427,\"relative-x2\":0.7260902830910482,\"relative-y2\":0.42678571428571427,\"elapse-time\":2890.1850001420826},{\"relative-x\":0.8408569242540168,\"relative-y\":0.4205357142857143,\"relative-x2\":0.8408569242540168,\"relative-y2\":0.4205357142857143,\"elapse-time\":2969.5000001229346},{\"relative-x\":0.7735271614384086,\"relative-y\":0.35625,\"relative-x2\":0.7735271614384086,\"relative-y2\":0.35625,\"elapse-time\":3048.494999995455},{\"relative-x\":0.9319051262433052,\"relative-y\":0.40089285714285716,\"relative-x2\":0.9319051262433052,\"relative-y2\":0.40089285714285716,\"elapse-time\":3130.3199999965727},{\"relative-x\":0.8339709257842387,\"relative-y\":0.5241071428571429,\"relative-x2\":0.8339709257842387,\"relative-y2\":0.5241071428571429,\"elapse-time\":3211.4550000987947},{\"relative-x\":0.8661055853098699,\"relative-y\":0.475,\"relative-x2\":0.8661055853098699,\"relative-y2\":0.475,\"elapse-time\":3291.734999977052}]}","realtrial":true,"trial_type":"binary-choice","trial_index":130,"time_elapsed":329926,"internal_node_id":"0.0-13.30-2.30","browser_name":"Chrome","browser_type":"85.0","subject":"e2tp9d4","interaction":"[]","windowWidth":1307,"windowHight":1120},{"rt":null,"stimulus":"<span id=\"calibration_dot_instruction\"></span>","key_press":null,"trial_type":"html-keyboard-response","trial_index":131,"time_elapsed":330428,"internal_node_id":"0.0-13.31-1.31-0.31","browser_name":"Chrome","browser_type":"85.0","subject":"e2tp9d4","interaction":"[]","windowWidth":1307,"windowHight":1120},{"stimulus":["../img/FoodImages/foodStimulus_32.jpg","../img/FoodImages/foodStimulus_16.jpg"],"left_stimulus":"../img/FoodImages/foodStimulus_32.jpg","right_stimulus":"../img/FoodImages/foodStimulus_16.jpg","rt":1115.6750000081956,"key_press":74,"choices":["F","J"],"eyeData":"{\"history\":[{\"relative-x\":0.5141545524100994,\"relative-y\":0.4714285714285714,\"relative-x2\":0.5141545524100994,\"relative-y2\":0.4714285714285714,\"elapse-time\":93.30000006593764},{\"relative-x\":0.4384085692425402,\"relative-y\":0.4401785714285714,\"relative-x2\":0.4384085692425402,\"relative-y2\":0.4401785714285714,\"elapse-time\":171.17500002495944},{\"relative-x\":0.48508033664881406,\"relative-y\":0.42232142857142857,\"relative-x2\":0.48508033664881406,\"relative-y2\":0.42232142857142857,\"elapse-time\":251.5650000423193},{\"relative-x\":0.5891354246365723,\"relative-y\":0.4544642857142857,\"relative-x2\":0.5891354246365723,\"relative-y2\":0.4544642857142857,\"elapse-time\":331.18500001728535},{\"relative-x\":0.2999234889058914,\"relative-y\":0.40625,\"relative-x2\":0.2999234889058914,\"relative-y2\":0.40625,\"elapse-time\":409.96499988250434},{\"relative-x\":0.15761285386381024,\"relative-y\":0.4044642857142857,\"relative-x2\":0.15761285386381024,\"relative-y2\":0.4044642857142857,\"elapse-time\":489.6350000053644},{\"relative-x\":0.2723794950267789,\"relative-y\":0.49642857142857144,\"relative-x2\":0.2723794950267789,\"relative-y2\":0.49642857142857144,\"elapse-time\":569.3649998866022},{\"relative-x\":0.8140780413159908,\"relative-y\":0.4142857142857143,\"relative-x2\":0.8140780413159908,\"relative-y2\":0.4142857142857143,\"elapse-time\":649.5749999303371},{\"relative-x\":0.7398622800306044,\"relative-y\":0.39017857142857143,\"relative-x2\":0.7398622800306044,\"relative-y2\":0.39017857142857143,\"elapse-time\":731.4649999607354},{\"relative-x\":0.8791124713083397,\"relative-y\":0.41517857142857145,\"relative-x2\":0.8791124713083397,\"relative-y2\":0.41517857142857145,\"elapse-time\":811.7499998770654},{\"relative-x\":0.8293802601377199,\"relative-y\":0.4035714285714286,\"relative-x2\":0.8293802601377199,\"relative-y2\":0.4035714285714286,\"elapse-time\":893.489999929443},{\"relative-x\":0.25784238714613616,\"relative-y\":0.45982142857142855,\"relative-x2\":0.25784238714613616,\"relative-y2\":0.45982142857142855,\"elapse-time\":969.5699999574572},{\"relative-x\":0.17061973986228002,\"relative-y\":0.38660714285714287,\"relative-x2\":0.17061973986228002,\"relative-y2\":0.38660714285714287,\"elapse-time\":1049.2599999997765},{\"relative-x\":0.19969395562356543,\"relative-y\":0.42142857142857143,\"relative-x2\":0.19969395562356543,\"relative-y2\":0.42142857142857143,\"elapse-time\":1134.9599999375641},{\"relative-x\":0.3006885998469778,\"relative-y\":0.45,\"relative-x2\":0.3006885998469778,\"relative-y2\":0.45,\"elapse-time\":1212.790000019595},{\"relative-x\":0.7161438408569243,\"relative-y\":0.7169642857142857,\"relative-x2\":0.7161438408569243,\"relative-y2\":0.7169642857142857,\"elapse-time\":1293.159999884665},{\"relative-x\":0.8163733741392502,\"relative-y\":0.5035714285714286,\"relative-x2\":0.8163733741392502,\"relative-y2\":0.5035714285714286,\"elapse-time\":1371.4049998670816},{\"relative-x\":0.8393267023718439,\"relative-y\":0.38125,\"relative-x2\":0.8393267023718439,\"relative-y2\":0.38125,\"elapse-time\":1451.3300000689924},{\"relative-x\":0.8615149196633511,\"relative-y\":0.3723214285714286,\"relative-x2\":0.8615149196633511,\"relative-y2\":0.3723214285714286,\"elapse-time\":1531.6649999003857},{\"relative-x\":0.9739862280030605,\"relative-y\":0.4767857142857143,\"relative-x2\":0.9739862280030605,\"relative-y2\":0.4767857142857143,\"elapse-time\":1612.5799999572337}]}","realtrial":true,"trial_type":"binary-choice","trial_index":132,"time_elapsed":332046,"internal_node_id":"0.0-13.31-2.31","browser_name":"Chrome","browser_type":"85.0","subject":"e2tp9d4","interaction":"[]","windowWidth":1307,"windowHight":1120},{"rt":null,"stimulus":"<span id=\"calibration_dot_instruction\"></span>","key_press":null,"trial_type":"html-keyboard-response","trial_index":133,"time_elapsed":332547,"internal_node_id":"0.0-13.32-1.32-0.32","browser_name":"Chrome","browser_type":"85.0","subject":"e2tp9d4","interaction":"[]","windowWidth":1307,"windowHight":1120},{"stimulus":["../img/FoodImages/foodStimulus_17.jpg","../img/FoodImages/foodStimulus_11.jpg"],"left_stimulus":"../img/FoodImages/foodStimulus_17.jpg","right_stimulus":"../img/FoodImages/foodStimulus_11.jpg","rt":606.7899998743087,"key_press":70,"choices":["F","J"],"eyeData":"{\"history\":[{\"relative-x\":0.3297628156082632,\"relative-y\":0.5151785714285714,\"relative-x2\":0.3297628156082632,\"relative-y2\":0.5151785714285714,\"elapse-time\":90.68000013940036},{\"relative-x\":0.1568477429227238,\"relative-y\":0.4089285714285714,\"relative-x2\":0.1568477429227238,\"relative-y2\":0.4089285714285714,\"elapse-time\":171.8999999575317},{\"relative-x\":0.23182861514919664,\"relative-y\":0.3607142857142857,\"relative-x2\":0.23182861514919664,\"relative-y2\":0.3607142857142857,\"elapse-time\":250.90999994426966},{\"relative-x\":0.2999234889058914,\"relative-y\":0.3535714285714286,\"relative-x2\":0.2999234889058914,\"relative-y2\":0.3535714285714286,\"elapse-time\":331.9699999410659},{\"relative-x\":0.2433052792654935,\"relative-y\":0.31785714285714284,\"relative-x2\":0.2433052792654935,\"relative-y2\":0.31785714285714284,\"elapse-time\":411.5949999541044},{\"relative-x\":0.5623565416985463,\"relative-y\":0.4035714285714286,\"relative-x2\":0.5623565416985463,\"relative-y2\":0.4035714285714286,\"elapse-time\":490.98500004038215},{\"relative-x\":0.8607498087222647,\"relative-y\":0.4589285714285714,\"relative-x2\":0.8607498087222647,\"relative-y2\":0.4589285714285714,\"elapse-time\":573.2400000561029},{\"relative-x\":0.8224942616679418,\"relative-y\":0.40089285714285716,\"relative-x2\":0.8224942616679418,\"relative-y2\":0.40089285714285716,\"elapse-time\":661.104999948293},{\"relative-x\":0.8576893649579189,\"relative-y\":0.3669642857142857,\"relative-x2\":0.8576893649579189,\"relative-y2\":0.3669642857142857,\"elapse-time\":730.8549999725074},{\"relative-x\":0.2999234889058914,\"relative-y\":0.2892857142857143,\"relative-x2\":0.2999234889058914,\"relative-y2\":0.2892857142857143,\"elapse-time\":810.3650000412017},{\"relative-x\":0.24024483550114767,\"relative-y\":0.38839285714285715,\"relative-x2\":0.24024483550114767,\"relative-y2\":0.38839285714285715,\"elapse-time\":894.3350000772625},{\"relative-x\":0.2035195103289977,\"relative-y\":0.375,\"relative-x2\":0.2035195103289977,\"relative-y2\":0.375,\"elapse-time\":974.8700000345707},{\"relative-x\":0.23488905891354248,\"relative-y\":0.3357142857142857,\"relative-x2\":0.23488905891354248,\"relative-y2\":0.3357142857142857,\"elapse-time\":1051.3250001240522}]}","realtrial":true,"trial_type":"binary-choice","trial_index":134,"time_elapsed":333655,"internal_node_id":"0.0-13.32-2.32","browser_name":"Chrome","browser_type":"85.0","subject":"e2tp9d4","interaction":"[]","windowWidth":1307,"windowHight":1120},{"rt":null,"stimulus":"<span id=\"calibration_dot_instruction\"></span>","key_press":null,"trial_type":"html-keyboard-response","trial_index":135,"time_elapsed":334161,"internal_node_id":"0.0-13.33-1.33-0.33","browser_name":"Chrome","browser_type":"85.0","subject":"e2tp9d4","interaction":"[]","windowWidth":1307,"windowHight":1120},{"stimulus":["../img/FoodImages/foodStimulus_46.jpg","../img/FoodImages/foodStimulus_27.jpg"],"left_stimulus":"../img/FoodImages/foodStimulus_46.jpg","right_stimulus":"../img/FoodImages/foodStimulus_27.jpg","rt":357.62999998405576,"key_press":74,"choices":["F","J"],"eyeData":"{\"history\":[{\"relative-x\":0.48355011476664117,\"relative-y\":0.39107142857142857,\"relative-x2\":0.48355011476664117,\"relative-y2\":0.39107142857142857,\"elapse-time\":92.97500015236437},{\"relative-x\":0.5409334353481254,\"relative-y\":0.38660714285714287,\"relative-x2\":0.5409334353481254,\"relative-y2\":0.38660714285714287,\"elapse-time\":171.65000014938414},{\"relative-x\":0.5914307574598316,\"relative-y\":0.4758928571428571,\"relative-x2\":0.5914307574598316,\"relative-y2\":0.4758928571428571,\"elapse-time\":250.68000005558133},{\"relative-x\":0.603672532517215,\"relative-y\":0.45535714285714285,\"relative-x2\":0.603672532517215,\"relative-y2\":0.45535714285714285,\"elapse-time\":330.59999998658895},{\"relative-x\":0.595256312165264,\"relative-y\":0.4303571428571429,\"relative-x2\":0.595256312165264,\"relative-y2\":0.4303571428571429,\"elapse-time\":415.1699999347329},{\"relative-x\":0.6954858454475898,\"relative-y\":0.5,\"relative-x2\":0.6954858454475898,\"relative-y2\":0.5,\"elapse-time\":492.51000001095235},{\"relative-x\":0.8592195868400918,\"relative-y\":0.3678571428571429,\"relative-x2\":0.8592195868400918,\"relative-y2\":0.3678571428571429,\"elapse-time\":570.670000044629},{\"relative-x\":0.5386381025248661,\"relative-y\":0.33839285714285716,\"relative-x2\":0.5386381025248661,\"relative-y2\":0.33839285714285716,\"elapse-time\":958.98999995552}]}","realtrial":true,"trial_type":"binary-choice","trial_index":136,"time_elapsed":335122,"internal_node_id":"0.0-13.33-2.33","browser_name":"Chrome","browser_type":"85.0","subject":"e2tp9d4","interaction":"[]","windowWidth":1307,"windowHight":1120},{"rt":null,"stimulus":"<span id=\"calibration_dot_instruction\"></span>","key_press":null,"trial_type":"html-keyboard-response","trial_index":137,"time_elapsed":335627,"internal_node_id":"0.0-13.34-1.34-0.34","browser_name":"Chrome","browser_type":"85.0","subject":"e2tp9d4","interaction":"[]","windowWidth":1307,"windowHight":1120},{"stimulus":["../img/FoodImages/foodStimulus_39.jpg","../img/FoodImages/foodStimulus_45.jpg"],"left_stimulus":"../img/FoodImages/foodStimulus_39.jpg","right_stimulus":"../img/FoodImages/foodStimulus_45.jpg","rt":757.8349998220801,"key_press":70,"choices":["F","J"],"eyeData":"{\"history\":[{\"relative-x\":0.5095638867635807,\"relative-y\":0.3482142857142857,\"relative-x2\":0.5095638867635807,\"relative-y2\":0.3482142857142857,\"elapse-time\":90.40499990805984},{\"relative-x\":0.5355776587605203,\"relative-y\":0.3669642857142857,\"relative-x2\":0.5355776587605203,\"relative-y2\":0.3669642857142857,\"elapse-time\":171.48999986238778},{\"relative-x\":0.5554705432287682,\"relative-y\":0.3705357142857143,\"relative-x2\":0.5554705432287682,\"relative-y2\":0.3705357142857143,\"elapse-time\":252.33000004664063},{\"relative-x\":0.5294567712318287,\"relative-y\":0.4125,\"relative-x2\":0.5294567712318287,\"relative-y2\":0.4125,\"elapse-time\":331.304999999702},{\"relative-x\":0.5485845447589901,\"relative-y\":0.35,\"relative-x2\":0.5485845447589901,\"relative-y2\":0.35,\"elapse-time\":412.59499988518655},{\"relative-x\":0.7941851568477429,\"relative-y\":0.4044642857142857,\"relative-x2\":0.7941851568477429,\"relative-y2\":0.4044642857142857,\"elapse-time\":492.0850000344217},{\"relative-x\":0.7857689364957919,\"relative-y\":0.3705357142857143,\"relative-x2\":0.7857689364957919,\"relative-y2\":0.3705357142857143,\"elapse-time\":569.0849998500198},{\"relative-x\":0.29839326702371843,\"relative-y\":0.4473214285714286,\"relative-x2\":0.29839326702371843,\"relative-y2\":0.4473214285714286,\"elapse-time\":657.0599998813123},{\"relative-x\":0.16143840856924255,\"relative-y\":0.48035714285714287,\"relative-x2\":0.16143840856924255,\"relative-y2\":0.48035714285714287,\"elapse-time\":731.0200000647455},{\"relative-x\":0.21729150726855395,\"relative-y\":0.4455357142857143,\"relative-x2\":0.21729150726855395,\"relative-y2\":0.4455357142857143,\"elapse-time\":811.1699998844415},{\"relative-x\":0.019127773527161437,\"relative-y\":0.31339285714285714,\"relative-x2\":0.019127773527161437,\"relative-y2\":0.31339285714285714,\"elapse-time\":890.1649999897927},{\"relative-x\":0.12318286151491967,\"relative-y\":0.30714285714285716,\"relative-x2\":0.12318286151491967,\"relative-y2\":0.30714285714285716,\"elapse-time\":969.939999980852},{\"relative-x\":0.13925019127773527,\"relative-y\":0.2526785714285714,\"relative-x2\":0.13925019127773527,\"relative-y2\":0.2526785714285714,\"elapse-time\":1053.3699998632073},{\"relative-x\":0.1063504208110176,\"relative-y\":0.38571428571428573,\"relative-x2\":0.1063504208110176,\"relative-y2\":0.38571428571428573,\"elapse-time\":1131.0900000389665},{\"relative-x\":0.1568477429227238,\"relative-y\":0.28660714285714284,\"relative-x2\":0.1568477429227238,\"relative-y2\":0.28660714285714284,\"elapse-time\":1211.5299999713898}]}","realtrial":true,"trial_type":"binary-choice","trial_index":138,"time_elapsed":336887,"internal_node_id":"0.0-13.34-2.34","browser_name":"Chrome","browser_type":"85.0","subject":"e2tp9d4","interaction":"[]","windowWidth":1307,"windowHight":1120},{"rt":2520.849999971688,"stimulus":"<div>You are halfway done! Now you can take a short break if you want. You can move your head during the break.</br>\n             <br></br>\n             When you are ready to continue the study, press the <b>SPACE BAR</b>.</div>","key_press":32,"trial_type":"html-keyboard-response","trial_index":139,"time_elapsed":339408,"internal_node_id":"0.0-14.0","browser_name":"Chrome","browser_type":"85.0","subject":"e2tp9d4","interaction":"[]","windowWidth":1307,"windowHight":1120},{"rt":1079.4800000730902,"stimulus":"<div>We need to redo the calibration and validation before you return to the study.  </br>\n  As before, make sure you stare at each dot until it disappears and make sure you don’t move your head.</br>\n   <br></br>\n   Press the <b>SPACE BAR</b> when you are ready to begin.</div>","key_press":32,"trial_type":"html-keyboard-response","trial_index":140,"time_elapsed":340991,"internal_node_id":"0.0-15.0-0.0","browser_name":"Chrome","browser_type":"85.0","subject":"e2tp9d4","interaction":"[]","windowWidth":1307,"windowHight":1120},{"validationPoints":"[{\"x\":\"80%\",\"y\":\"50%\",\"valid\":true,\"hitRatio\":1},{\"x\":\"80%\",\"y\":\"80%\",\"valid\":true,\"hitRatio\":0.991304347826087},{\"x\":\"65%\",\"y\":\"35%\",\"valid\":true,\"hitRatio\":1},{\"x\":\"20%\",\"y\":\"20%\",\"valid\":true,\"hitRatio\":0.9487179487179487},{\"x\":\"20%\",\"y\":\"80%\",\"valid\":true,\"hitRatio\":0.9913793103448276},{\"x\":\"35%\",\"y\":\"65%\",\"valid\":true,\"hitRatio\":0.9830508474576272},{\"x\":\"50%\",\"y\":\"80%\",\"valid\":true,\"hitRatio\":0.9736842105263158},{\"x\":\"50%\",\"y\":\"50%\",\"valid\":true,\"hitRatio\":1}]","accuracy":1,"trial_type":"eye-tracking","trial_index":141,"time_elapsed":405648,"internal_node_id":"0.0-15.0-1.0","browser_name":"Chrome","browser_type":"85.0","subject":"e2tp9d4","interaction":"[]","windowWidth":1307,"windowHight":1120},{"validationPoints":"[{\"x\":\"50%\",\"y\":\"20%\",\"valid\":true,\"hitRatio\":0.8278688524590164},{\"x\":\"20%\",\"y\":\"50%\",\"valid\":true,\"hitRatio\":0.991304347826087},{\"x\":\"50%\",\"y\":\"50%\",\"valid\":true,\"hitRatio\":0.9826086956521739}]","accuracy":1,"trial_type":"eye-tracking","trial_index":142,"time_elapsed":415662,"internal_node_id":"0.0-16.0-0.0-0.0","browser_name":"Chrome","browser_type":"85.0","subject":"e2tp9d4","interaction":"[]","windowWidth":1307,"windowHight":1120},{"stimulus":["../img/FoodImages/foodStimulus_39.jpg","../img/FoodImages/foodStimulus_42.jpg"],"left_stimulus":"../img/FoodImages/foodStimulus_39.jpg","right_stimulus":"../img/FoodImages/foodStimulus_42.jpg","rt":1157.8899999149144,"key_press":74,"choices":["F","J"],"eyeData":"{\"history\":[{\"relative-x\":0.5485845447589901,\"relative-y\":0.4142857142857143,\"relative-x2\":0.5485845447589901,\"relative-y2\":0.4142857142857143,\"elapse-time\":91.64499980397522},{\"relative-x\":0.4407039020657995,\"relative-y\":0.4401785714285714,\"relative-x2\":0.4407039020657995,\"relative-y2\":0.4401785714285714,\"elapse-time\":173.12499997206032},{\"relative-x\":0.5126243305279266,\"relative-y\":0.44375,\"relative-x2\":0.5126243305279266,\"relative-y2\":0.44375,\"elapse-time\":251.61999999545515},{\"relative-x\":0.5271614384085692,\"relative-y\":0.40535714285714286,\"relative-x2\":0.5271614384085692,\"relative-y2\":0.40535714285714286,\"elapse-time\":330.8399999514222},{\"relative-x\":0.4613618974751339,\"relative-y\":0.4205357142857143,\"relative-x2\":0.4613618974751339,\"relative-y2\":0.4205357142857143,\"elapse-time\":413.30499993637204},{\"relative-x\":0.8691660290742158,\"relative-y\":0.4714285714285714,\"relative-x2\":0.8691660290742158,\"relative-y2\":0.4714285714285714,\"elapse-time\":492.4149999860674},{\"relative-x\":0.8255547054322877,\"relative-y\":0.42678571428571427,\"relative-x2\":0.8255547054322877,\"relative-y2\":0.42678571428571427,\"elapse-time\":572.5949998013675},{\"relative-x\":0.35348125478194337,\"relative-y\":0.5196428571428572,\"relative-x2\":0.35348125478194337,\"relative-y2\":0.5196428571428572,\"elapse-time\":652.9049999080598},{\"relative-x\":0.4223412394797246,\"relative-y\":0.4714285714285714,\"relative-x2\":0.4223412394797246,\"relative-y2\":0.4714285714285714,\"elapse-time\":730.5949998553842},{\"relative-x\":0.14537107880642694,\"relative-y\":0.4660714285714286,\"relative-x2\":0.14537107880642694,\"relative-y2\":0.4660714285714286,\"elapse-time\":812.0249998755753},{\"relative-x\":0.15914307574598316,\"relative-y\":0.3044642857142857,\"relative-x2\":0.15914307574598316,\"relative-y2\":0.3044642857142857,\"elapse-time\":891.9349999632686},{\"relative-x\":0.06962509563886764,\"relative-y\":0.44107142857142856,\"relative-x2\":0.06962509563886764,\"relative-y2\":0.44107142857142856,\"elapse-time\":973.1649998575449},{\"relative-x\":0.7543993879112472,\"relative-y\":0.325,\"relative-x2\":0.7543993879112472,\"relative-y2\":0.325,\"elapse-time\":1052.3599998559803},{\"relative-x\":0.9357306809487376,\"relative-y\":0.23392857142857143,\"relative-x2\":0.9357306809487376,\"relative-y2\":0.23392857142857143,\"elapse-time\":1131.214999826625},{\"relative-x\":0.7834736036725325,\"relative-y\":0.2910714285714286,\"relative-x2\":0.7834736036725325,\"relative-y2\":0.2910714285714286,\"elapse-time\":1212.5150000210851},{\"relative-x\":0.9112471308339709,\"relative-y\":0.35625,\"relative-x2\":0.9112471308339709,\"relative-y2\":0.35625,\"elapse-time\":1292.0150000136346},{\"relative-x\":0.6465187452180566,\"relative-y\":0.37142857142857144,\"relative-x2\":0.6465187452180566,\"relative-y2\":0.37142857142857144,\"elapse-time\":1373.2799999415874},{\"relative-x\":0.8339709257842387,\"relative-y\":0.4017857142857143,\"relative-x2\":0.8339709257842387,\"relative-y2\":0.4017857142857143,\"elapse-time\":1452.5399999693036},{\"relative-x\":0.8026013771996939,\"relative-y\":0.35446428571428573,\"relative-x2\":0.8026013771996939,\"relative-y2\":0.35446428571428573,\"elapse-time\":1530.6100000161678},{\"relative-x\":0.6641162968630452,\"relative-y\":0.37410714285714286,\"relative-x2\":0.6641162968630452,\"relative-y2\":0.37410714285714286,\"elapse-time\":1611.3799999002367}]}","realtrial":true,"trial_type":"binary-choice","trial_index":143,"time_elapsed":417324,"internal_node_id":"0.0-16.0-2.0","browser_name":"Chrome","browser_type":"85.0","subject":"e2tp9d4","interaction":"[]","windowWidth":1307,"windowHight":1120},{"rt":null,"stimulus":"<span id=\"calibration_dot_instruction\"></span>","key_press":null,"trial_type":"html-keyboard-response","trial_index":144,"time_elapsed":417825,"internal_node_id":"0.0-16.1-1.1-0.1","browser_name":"Chrome","browser_type":"85.0","subject":"e2tp9d4","interaction":"[]","windowWidth":1307,"windowHight":1120},{"stimulus":["../img/FoodImages/foodStimulus_27.jpg","../img/FoodImages/foodStimulus_41.jpg"],"left_stimulus":"../img/FoodImages/foodStimulus_27.jpg","right_stimulus":"../img/FoodImages/foodStimulus_41.jpg","rt":478.20000001229346,"key_press":70,"choices":["F","J"],"eyeData":"{\"history\":[{\"relative-x\":0.541698546289212,\"relative-y\":0.625,\"relative-x2\":0.541698546289212,\"relative-y2\":0.625,\"elapse-time\":94.43999989889562},{\"relative-x\":0.5432287681713849,\"relative-y\":0.6044642857142857,\"relative-x2\":0.5432287681713849,\"relative-y2\":0.6044642857142857,\"elapse-time\":171.38499999418855},{\"relative-x\":0.5256312165263963,\"relative-y\":0.39375,\"relative-x2\":0.5256312165263963,\"relative-y2\":0.39375,\"elapse-time\":252.54499982111156},{\"relative-x\":0.4590665646518745,\"relative-y\":0.3848214285714286,\"relative-x2\":0.4590665646518745,\"relative-y2\":0.3848214285714286,\"elapse-time\":330.3399998694658},{\"relative-x\":0.3029839326702372,\"relative-y\":0.4919642857142857,\"relative-x2\":0.3029839326702372,\"relative-y2\":0.4919642857142857,\"elapse-time\":411.15499986335635},{\"relative-x\":0.1384850803366488,\"relative-y\":0.4669642857142857,\"relative-x2\":0.1384850803366488,\"relative-y2\":0.4669642857142857,\"elapse-time\":496.6799998655915},{\"relative-x\":0.19510328997704668,\"relative-y\":0.42142857142857143,\"relative-x2\":0.19510328997704668,\"relative-y2\":0.42142857142857143,\"elapse-time\":571.6750000137836},{\"relative-x\":0.14613618974751338,\"relative-y\":0.47946428571428573,\"relative-x2\":0.14613618974751338,\"relative-y2\":0.47946428571428573,\"elapse-time\":653.3449999988079},{\"relative-x\":0.005355776587605203,\"relative-y\":0.4758928571428571,\"relative-x2\":0.005355776587605203,\"relative-y2\":0.4758928571428571,\"elapse-time\":732.3699998669326},{\"relative-x\":0.1407804131599082,\"relative-y\":0.4830357142857143,\"relative-x2\":0.1407804131599082,\"relative-y2\":0.4830357142857143,\"elapse-time\":811.615000013262},{\"relative-x\":0.13925019127773527,\"relative-y\":0.38839285714285715,\"relative-x2\":0.13925019127773527,\"relative-y2\":0.38839285714285715,\"elapse-time\":894.6249999571592},{\"relative-x\":0.07957153787299158,\"relative-y\":0.44821428571428573,\"relative-x2\":0.07957153787299158,\"relative-y2\":0.44821428571428573,\"elapse-time\":972.330000018701}]}","realtrial":true,"trial_type":"binary-choice","trial_index":145,"time_elapsed":418805,"internal_node_id":"0.0-16.1-2.1","browser_name":"Chrome","browser_type":"85.0","subject":"e2tp9d4","interaction":"[]","windowWidth":1307,"windowHight":1120},{"rt":null,"stimulus":"<span id=\"calibration_dot_instruction\"></span>","key_press":null,"trial_type":"html-keyboard-response","trial_index":146,"time_elapsed":419306,"internal_node_id":"0.0-16.2-1.2-0.2","browser_name":"Chrome","browser_type":"85.0","subject":"e2tp9d4","interaction":"[]","windowWidth":1307,"windowHight":1120},{"stimulus":["../img/FoodImages/foodStimulus_11.jpg","../img/FoodImages/foodStimulus_31.jpg"],"left_stimulus":"../img/FoodImages/foodStimulus_11.jpg","right_stimulus":"../img/FoodImages/foodStimulus_31.jpg","rt":2403.1599999871105,"key_press":74,"choices":["F","J"],"eyeData":"{\"history\":[{\"relative-x\":0.4728385615914308,\"relative-y\":0.3,\"relative-x2\":0.4728385615914308,\"relative-y2\":0.3,\"elapse-time\":91.85500000603497},{\"relative-x\":0.5394032134659525,\"relative-y\":0.3875,\"relative-x2\":0.5394032134659525,\"relative-y2\":0.3875,\"elapse-time\":170.19999981857836},{\"relative-x\":0.4636572302983933,\"relative-y\":0.44285714285714284,\"relative-x2\":0.4636572302983933,\"relative-y2\":0.44285714285714284,\"elapse-time\":249.17999980971217},{\"relative-x\":0.550114766641163,\"relative-y\":0.4473214285714286,\"relative-x2\":0.550114766641163,\"relative-y2\":0.4473214285714286,\"elapse-time\":331.6799998283386},{\"relative-x\":0.7865340474368784,\"relative-y\":0.34375,\"relative-x2\":0.7865340474368784,\"relative-y2\":0.34375,\"elapse-time\":413.7099999934435},{\"relative-x\":0.8714613618974751,\"relative-y\":0.26339285714285715,\"relative-x2\":0.8714613618974751,\"relative-y2\":0.26339285714285715,\"elapse-time\":491.09499994665384},{\"relative-x\":0.6947207345065034,\"relative-y\":0.39553571428571427,\"relative-x2\":0.6947207345065034,\"relative-y2\":0.39553571428571427,\"elapse-time\":573.2650000136346},{\"relative-x\":0.8783473603672532,\"relative-y\":0.33214285714285713,\"relative-x2\":0.8783473603672532,\"relative-y2\":0.33214285714285713,\"elapse-time\":650.4949999507517},{\"relative-x\":0.18821729150726854,\"relative-y\":0.36964285714285716,\"relative-x2\":0.18821729150726854,\"relative-y2\":0.36964285714285716,\"elapse-time\":732.2399998083711},{\"relative-x\":0.11400153022188217,\"relative-y\":0.41785714285714287,\"relative-x2\":0.11400153022188217,\"relative-y2\":0.41785714285714287,\"elapse-time\":812.9499999340624},{\"relative-x\":0.6052027543993879,\"relative-y\":0.3151785714285714,\"relative-x2\":0.6052027543993879,\"relative-y2\":0.3151785714285714,\"elapse-time\":891.6599999647588},{\"relative-x\":0.7697016067329763,\"relative-y\":0.5741071428571428,\"relative-x2\":0.7697016067329763,\"relative-y2\":0.5741071428571428,\"elapse-time\":972.9299999307841},{\"relative-x\":0.8316755929609794,\"relative-y\":0.5526785714285715,\"relative-x2\":0.8316755929609794,\"relative-y2\":0.5526785714285715,\"elapse-time\":1051.6699999570847},{\"relative-x\":0.7872991583779648,\"relative-y\":0.5258928571428572,\"relative-x2\":0.7872991583779648,\"relative-y2\":0.5258928571428572,\"elapse-time\":1131.749999942258},{\"relative-x\":0.19510328997704668,\"relative-y\":0.4035714285714286,\"relative-x2\":0.19510328997704668,\"relative-y2\":0.4035714285714286,\"elapse-time\":1213.7749998364598},{\"relative-x\":0.18592195868400918,\"relative-y\":0.4375,\"relative-x2\":0.18592195868400918,\"relative-y2\":0.4375,\"elapse-time\":1292.9350000340492},{\"relative-x\":0.051262433052792655,\"relative-y\":0.45267857142857143,\"relative-x2\":0.051262433052792655,\"relative-y2\":0.45267857142857143,\"elapse-time\":1374.2799998726696},{\"relative-x\":0.1713848508033665,\"relative-y\":0.4017857142857143,\"relative-x2\":0.1713848508033665,\"relative-y2\":0.4017857142857143,\"elapse-time\":1450.8599999826401},{\"relative-x\":0.15761285386381024,\"relative-y\":0.48392857142857143,\"relative-x2\":0.15761285386381024,\"relative-y2\":0.48392857142857143,\"elapse-time\":1530.9499998111278},{\"relative-x\":0.16067329762815608,\"relative-y\":0.36160714285714285,\"relative-x2\":0.16067329762815608,\"relative-y2\":0.36160714285714285,\"elapse-time\":1614.0599998179823},{\"relative-x\":0.14460596786534047,\"relative-y\":0.5169642857142858,\"relative-x2\":0.14460596786534047,\"relative-y2\":0.5169642857142858,\"elapse-time\":1690.0449998211116},{\"relative-x\":0.7413925019127774,\"relative-y\":0.3196428571428571,\"relative-x2\":0.7413925019127774,\"relative-y2\":0.3196428571428571,\"elapse-time\":1775.2099998760968},{\"relative-x\":0.7268553940321346,\"relative-y\":0.4142857142857143,\"relative-x2\":0.7268553940321346,\"relative-y2\":0.4142857142857143,\"elapse-time\":1851.8099999055266},{\"relative-x\":0.8798775822494261,\"relative-y\":0.43392857142857144,\"relative-x2\":0.8798775822494261,\"relative-y2\":0.43392857142857144,\"elapse-time\":1932.550000026822},{\"relative-x\":0.7153787299158378,\"relative-y\":0.3919642857142857,\"relative-x2\":0.7153787299158378,\"relative-y2\":0.3919642857142857,\"elapse-time\":2011.4400000311434},{\"relative-x\":0.8117827084927315,\"relative-y\":0.4669642857142857,\"relative-x2\":0.8117827084927315,\"relative-y2\":0.4669642857142857,\"elapse-time\":2091.034999815747},{\"relative-x\":0.8179035960214232,\"relative-y\":0.5517857142857143,\"relative-x2\":0.8179035960214232,\"relative-y2\":0.5517857142857143,\"elapse-time\":2173.7449998036027},{\"relative-x\":0.8431522570772763,\"relative-y\":0.43214285714285716,\"relative-x2\":0.8431522570772763,\"relative-y2\":0.43214285714285716,\"elapse-time\":2250.654999865219},{\"relative-x\":0.8201989288446825,\"relative-y\":0.39464285714285713,\"relative-x2\":0.8201989288446825,\"relative-y2\":0.39464285714285713,\"elapse-time\":2332.1049998048693},{\"relative-x\":0.8400918133129304,\"relative-y\":0.3875,\"relative-x2\":0.8400918133129304,\"relative-y2\":0.3875,\"elapse-time\":2413.2799999788404},{\"relative-x\":0.7268553940321346,\"relative-y\":0.37410714285714286,\"relative-x2\":0.7268553940321346,\"relative-y2\":0.37410714285714286,\"elapse-time\":2489.839999936521},{\"relative-x\":0.7972456006120887,\"relative-y\":0.4758928571428571,\"relative-x2\":0.7972456006120887,\"relative-y2\":0.4758928571428571,\"elapse-time\":2572.8149998467416},{\"relative-x\":0.6863045141545524,\"relative-y\":0.5053571428571428,\"relative-x2\":0.6863045141545524,\"relative-y2\":0.5053571428571428,\"elapse-time\":2650.874999817461},{\"relative-x\":0.7689364957918898,\"relative-y\":0.4142857142857143,\"relative-x2\":0.7689364957918898,\"relative-y2\":0.4142857142857143,\"elapse-time\":2731.419999850914},{\"relative-x\":0.7804131599081867,\"relative-y\":0.46964285714285714,\"relative-x2\":0.7804131599081867,\"relative-y2\":0.46964285714285714,\"elapse-time\":2813.0349998828024},{\"relative-x\":0.8638102524866106,\"relative-y\":0.46517857142857144,\"relative-x2\":0.8638102524866106,\"relative-y2\":0.46517857142857144,\"elapse-time\":2892.89000001736}]}","realtrial":true,"trial_type":"binary-choice","trial_index":147,"time_elapsed":422211,"internal_node_id":"0.0-16.2-2.2","browser_name":"Chrome","browser_type":"85.0","subject":"e2tp9d4","interaction":"[]","windowWidth":1307,"windowHight":1120},{"rt":null,"stimulus":"<span id=\"calibration_dot_instruction\"></span>","key_press":null,"trial_type":"html-keyboard-response","trial_index":148,"time_elapsed":422712,"internal_node_id":"0.0-16.3-1.3-0.3","browser_name":"Chrome","browser_type":"85.0","subject":"e2tp9d4","interaction":"[]","windowWidth":1307,"windowHight":1120},{"stimulus":["../img/FoodImages/foodStimulus_32.jpg","../img/FoodImages/foodStimulus_31.jpg"],"left_stimulus":"../img/FoodImages/foodStimulus_32.jpg","right_stimulus":"../img/FoodImages/foodStimulus_31.jpg","rt":1345.4499999061227,"key_press":70,"choices":["F","J"],"eyeData":"{\"history\":[{\"relative-x\":0.47130833970925784,\"relative-y\":0.40089285714285716,\"relative-x2\":0.47130833970925784,\"relative-y2\":0.40089285714285716,\"elapse-time\":89.93999985978007},{\"relative-x\":0.4996174445294568,\"relative-y\":0.4125,\"relative-x2\":0.4996174445294568,\"relative-y2\":0.4125,\"elapse-time\":173.8849999383092},{\"relative-x\":0.4521805661820964,\"relative-y\":0.38660714285714287,\"relative-x2\":0.4521805661820964,\"relative-y2\":0.38660714285714287,\"elapse-time\":251.93000002764165},{\"relative-x\":0.43075745983167557,\"relative-y\":0.35446428571428573,\"relative-x2\":0.43075745983167557,\"relative-y2\":0.35446428571428573,\"elapse-time\":333.21999991312623},{\"relative-x\":0.20504973221117062,\"relative-y\":0.46875,\"relative-x2\":0.20504973221117062,\"relative-y2\":0.46875,\"elapse-time\":411.21999989263713},{\"relative-x\":0.08339709257842387,\"relative-y\":0.5107142857142857,\"relative-x2\":0.08339709257842387,\"relative-y2\":0.5107142857142857,\"elapse-time\":492.094999877736},{\"relative-x\":0.19892884468247896,\"relative-y\":0.4303571428571429,\"relative-x2\":0.19892884468247896,\"relative-y2\":0.4303571428571429,\"elapse-time\":572.6449999492615},{\"relative-x\":0.7337413925019127,\"relative-y\":0.3535714285714286,\"relative-x2\":0.7337413925019127,\"relative-y2\":0.3535714285714286,\"elapse-time\":651.6749998554587},{\"relative-x\":0.8255547054322877,\"relative-y\":0.425,\"relative-x2\":0.8255547054322877,\"relative-y2\":0.425,\"elapse-time\":733.8149999268353},{\"relative-x\":0.6381025248661056,\"relative-y\":0.3651785714285714,\"relative-x2\":0.6381025248661056,\"relative-y2\":0.3651785714285714,\"elapse-time\":810.0900000426918},{\"relative-x\":0.7819433817903596,\"relative-y\":0.38571428571428573,\"relative-x2\":0.7819433817903596,\"relative-y2\":0.38571428571428573,\"elapse-time\":890.4750000219792},{\"relative-x\":0.8500382555470544,\"relative-y\":0.36607142857142855,\"relative-x2\":0.8500382555470544,\"relative-y2\":0.36607142857142855,\"elapse-time\":973.4499999321997},{\"relative-x\":0.1966335118592196,\"relative-y\":0.4455357142857143,\"relative-x2\":0.1966335118592196,\"relative-y2\":0.4455357142857143,\"elapse-time\":1053.5249998793006},{\"relative-x\":0.0757459831675593,\"relative-y\":0.3669642857142857,\"relative-x2\":0.0757459831675593,\"relative-y2\":0.3669642857142857,\"elapse-time\":1132.4050000403076},{\"relative-x\":0.02218821729150727,\"relative-y\":0.4089285714285714,\"relative-x2\":0.02218821729150727,\"relative-y2\":0.4089285714285714,\"elapse-time\":1210.9449999406934},{\"relative-x\":0.09334353481254781,\"relative-y\":0.41785714285714287,\"relative-x2\":0.09334353481254781,\"relative-y2\":0.41785714285714287,\"elapse-time\":1290.7700000796467},{\"relative-x\":0.0504973221117062,\"relative-y\":0.48392857142857143,\"relative-x2\":0.0504973221117062,\"relative-y2\":0.48392857142857143,\"elapse-time\":1377.959999954328},{\"relative-x\":0.07421576128538639,\"relative-y\":0.42678571428571427,\"relative-x2\":0.07421576128538639,\"relative-y2\":0.42678571428571427,\"elapse-time\":1449.9649999197572},{\"relative-x\":0.029074215761285386,\"relative-y\":0.4830357142857143,\"relative-x2\":0.029074215761285386,\"relative-y2\":0.4830357142857143,\"elapse-time\":1533.1749999895692},{\"relative-x\":0.011476664116296864,\"relative-y\":0.5017857142857143,\"relative-x2\":0.011476664116296864,\"relative-y2\":0.5017857142857143,\"elapse-time\":1610.5100000277162},{\"relative-x\":0.03136954858454476,\"relative-y\":0.3821428571428571,\"relative-x2\":0.03136954858454476,\"relative-y2\":0.3821428571428571,\"elapse-time\":1689.9349999148399},{\"relative-x\":-0.03902065799540933,\"relative-y\":0.48214285714285715,\"relative-x2\":-0.03902065799540933,\"relative-y2\":0.48214285714285715,\"elapse-time\":1773.8649998791516},{\"relative-x\":0.05432287681713849,\"relative-y\":0.45982142857142855,\"relative-x2\":0.05432287681713849,\"relative-y2\":0.45982142857142855,\"elapse-time\":1854.249999858439}]}","realtrial":true,"trial_type":"binary-choice","trial_index":149,"time_elapsed":424572,"internal_node_id":"0.0-16.3-2.3","browser_name":"Chrome","browser_type":"85.0","subject":"e2tp9d4","interaction":"[]","windowWidth":1307,"windowHight":1120},{"rt":null,"stimulus":"<span id=\"calibration_dot_instruction\"></span>","key_press":null,"trial_type":"html-keyboard-response","trial_index":150,"time_elapsed":425075,"internal_node_id":"0.0-16.4-1.4-0.4","browser_name":"Chrome","browser_type":"85.0","subject":"e2tp9d4","interaction":"[]","windowWidth":1307,"windowHight":1120},{"stimulus":["../img/FoodImages/foodStimulus_45.jpg","../img/FoodImages/foodStimulus_42.jpg"],"left_stimulus":"../img/FoodImages/foodStimulus_45.jpg","right_stimulus":"../img/FoodImages/foodStimulus_42.jpg","rt":933.930000057444,"key_press":74,"choices":["F","J"],"eyeData":"{\"history\":[{\"relative-x\":0.4299923488905891,\"relative-y\":0.38839285714285715,\"relative-x2\":0.4299923488905891,\"relative-y2\":0.38839285714285715,\"elapse-time\":90.16499994322658},{\"relative-x\":0.35960214231063503,\"relative-y\":0.45,\"relative-x2\":0.35960214231063503,\"relative-y2\":0.45,\"elapse-time\":172.7700000628829},{\"relative-x\":0.37413925019127775,\"relative-y\":0.3517857142857143,\"relative-x2\":0.37413925019127775,\"relative-y2\":0.3517857142857143,\"elapse-time\":251.7500000540167},{\"relative-x\":0.34659525631216526,\"relative-y\":0.4732142857142857,\"relative-x2\":0.34659525631216526,\"relative-y2\":0.4732142857142857,\"elapse-time\":333.19499995559454},{\"relative-x\":0.5126243305279266,\"relative-y\":0.39732142857142855,\"relative-x2\":0.5126243305279266,\"relative-y2\":0.39732142857142855,\"elapse-time\":410.45999992638826},{\"relative-x\":0.7949502677888294,\"relative-y\":0.36875,\"relative-x2\":0.7949502677888294,\"relative-y2\":0.36875,\"elapse-time\":490.2299998793751},{\"relative-x\":0.6526396327467483,\"relative-y\":0.4669642857142857,\"relative-x2\":0.6526396327467483,\"relative-y2\":0.4669642857142857,\"elapse-time\":573.1200000736862},{\"relative-x\":0.7375669472073451,\"relative-y\":0.4348214285714286,\"relative-x2\":0.7375669472073451,\"relative-y2\":0.4348214285714286,\"elapse-time\":652.18500001356},{\"relative-x\":0.6687069625095639,\"relative-y\":0.45982142857142855,\"relative-x2\":0.6687069625095639,\"relative-y2\":0.45982142857142855,\"elapse-time\":733.8749999180436},{\"relative-x\":0.7628156082631982,\"relative-y\":0.48214285714285715,\"relative-x2\":0.7628156082631982,\"relative-y2\":0.48214285714285715,\"elapse-time\":811.0100000631064},{\"relative-x\":0.20581484315225707,\"relative-y\":0.4669642857142857,\"relative-x2\":0.20581484315225707,\"relative-y2\":0.4669642857142857,\"elapse-time\":890.360000077635},{\"relative-x\":0.18821729150726854,\"relative-y\":0.45089285714285715,\"relative-x2\":0.18821729150726854,\"relative-y2\":0.45089285714285715,\"elapse-time\":984.1249999590218},{\"relative-x\":0.27161438408569244,\"relative-y\":0.41160714285714284,\"relative-x2\":0.27161438408569244,\"relative-y2\":0.41160714285714284,\"elapse-time\":1050.6400000303984},{\"relative-x\":0.7605202754399388,\"relative-y\":0.38571428571428573,\"relative-x2\":0.7605202754399388,\"relative-y2\":0.38571428571428573,\"elapse-time\":1133.3649998996407},{\"relative-x\":0.7758224942616679,\"relative-y\":0.44821428571428573,\"relative-x2\":0.7758224942616679,\"relative-y2\":0.44821428571428573,\"elapse-time\":1210.2149999700487},{\"relative-x\":0.8186687069625096,\"relative-y\":0.4616071428571429,\"relative-x2\":0.8186687069625096,\"relative-y2\":0.4616071428571429,\"elapse-time\":1290.3199999127537},{\"relative-x\":0.7612853863810253,\"relative-y\":0.5125,\"relative-x2\":0.7612853863810253,\"relative-y2\":0.5125,\"elapse-time\":1372.2800000105053}]}","realtrial":true,"trial_type":"binary-choice","trial_index":151,"time_elapsed":426511,"internal_node_id":"0.0-16.4-2.4","browser_name":"Chrome","browser_type":"85.0","subject":"e2tp9d4","interaction":"[]","windowWidth":1307,"windowHight":1120},{"validationPoints":"[{\"x\":\"50%\",\"y\":\"20%\",\"valid\":true,\"hitRatio\":0.9464285714285714},{\"x\":\"50%\",\"y\":\"80%\",\"valid\":true,\"hitRatio\":0.896551724137931},{\"x\":\"50%\",\"y\":\"50%\",\"valid\":true,\"hitRatio\":0.9196428571428571}]","accuracy":1,"trial_type":"eye-tracking","trial_index":152,"time_elapsed":436533,"internal_node_id":"0.0-16.5-0.5-0.5","browser_name":"Chrome","browser_type":"85.0","subject":"e2tp9d4","interaction":"[]","windowWidth":1307,"windowHight":1120},{"stimulus":["../img/FoodImages/foodStimulus_27.jpg","../img/FoodImages/foodStimulus_32.jpg"],"left_stimulus":"../img/FoodImages/foodStimulus_27.jpg","right_stimulus":"../img/FoodImages/foodStimulus_32.jpg","rt":1532.4650001712143,"key_press":70,"choices":["F","J"],"eyeData":"{\"history\":[{\"relative-x\":0.5822494261667942,\"relative-y\":0.6116071428571429,\"relative-x2\":0.5822494261667942,\"relative-y2\":0.6116071428571429,\"elapse-time\":92.05499989911914},{\"relative-x\":0.5524100994644223,\"relative-y\":0.5714285714285714,\"relative-x2\":0.5524100994644223,\"relative-y2\":0.5714285714285714,\"elapse-time\":171.1800000630319},{\"relative-x\":0.4544758990053558,\"relative-y\":0.48928571428571427,\"relative-x2\":0.4544758990053558,\"relative-y2\":0.48928571428571427,\"elapse-time\":250.66499994136393},{\"relative-x\":0.42387146136189746,\"relative-y\":0.44375,\"relative-x2\":0.42387146136189746,\"relative-y2\":0.44375,\"elapse-time\":332.325000083074},{\"relative-x\":0.31675592960979343,\"relative-y\":0.49642857142857144,\"relative-x2\":0.31675592960979343,\"relative-y2\":0.49642857142857144,\"elapse-time\":412.0449998881668},{\"relative-x\":0.23488905891354248,\"relative-y\":0.42678571428571427,\"relative-x2\":0.23488905891354248,\"relative-y2\":0.42678571428571427,\"elapse-time\":490.2250000741333},{\"relative-x\":0.17674062739097168,\"relative-y\":0.42589285714285713,\"relative-x2\":0.17674062739097168,\"relative-y2\":0.42589285714285713,\"elapse-time\":573.2050000224262},{\"relative-x\":0.4506503442999235,\"relative-y\":0.31339285714285714,\"relative-x2\":0.4506503442999235,\"relative-y2\":0.31339285714285714,\"elapse-time\":651.2200001161546},{\"relative-x\":0.7138485080336648,\"relative-y\":0.35446428571428573,\"relative-x2\":0.7138485080336648,\"relative-y2\":0.35446428571428573,\"elapse-time\":731.6449999343604},{\"relative-x\":0.8515684774292273,\"relative-y\":0.4035714285714286,\"relative-x2\":0.8515684774292273,\"relative-y2\":0.4035714285714286,\"elapse-time\":812.0800000615418},{\"relative-x\":0.8485080336648814,\"relative-y\":0.3705357142857143,\"relative-x2\":0.8485080336648814,\"relative-y2\":0.3705357142857143,\"elapse-time\":891.3700000848621},{\"relative-x\":0.7352716143840857,\"relative-y\":0.39017857142857143,\"relative-x2\":0.7352716143840857,\"relative-y2\":0.39017857142857143,\"elapse-time\":973.4149998985231},{\"relative-x\":0.6794185156847743,\"relative-y\":0.36875,\"relative-x2\":0.6794185156847743,\"relative-y2\":0.36875,\"elapse-time\":1050.634999992326},{\"relative-x\":0.7903596021423106,\"relative-y\":0.3732142857142857,\"relative-x2\":0.7903596021423106,\"relative-y2\":0.3732142857142857,\"elapse-time\":1128.7849999498576},{\"relative-x\":0.8584544758990054,\"relative-y\":0.32142857142857145,\"relative-x2\":0.8584544758990054,\"relative-y2\":0.32142857142857145,\"elapse-time\":1212.254999903962},{\"relative-x\":0.3435348125478194,\"relative-y\":0.40089285714285716,\"relative-x2\":0.3435348125478194,\"relative-y2\":0.40089285714285716,\"elapse-time\":1290.1800000108778},{\"relative-x\":0.16985462892119357,\"relative-y\":0.42589285714285713,\"relative-x2\":0.16985462892119357,\"relative-y2\":0.42589285714285713,\"elapse-time\":1373.5150001011789},{\"relative-x\":0.1874521805661821,\"relative-y\":0.4830357142857143,\"relative-x2\":0.1874521805661821,\"relative-y2\":0.4830357142857143,\"elapse-time\":1451.039999956265},{\"relative-x\":0.13083397092578425,\"relative-y\":0.41160714285714284,\"relative-x2\":0.13083397092578425,\"relative-y2\":0.41160714285714284,\"elapse-time\":1531.1199999414384},{\"relative-x\":0.10252486610558531,\"relative-y\":0.46517857142857144,\"relative-x2\":0.10252486610558531,\"relative-y2\":0.46517857142857144,\"elapse-time\":1612.0899999514222},{\"relative-x\":0.07345065034429993,\"relative-y\":0.4330357142857143,\"relative-x2\":0.07345065034429993,\"relative-y2\":0.4330357142857143,\"elapse-time\":1691.679999930784},{\"relative-x\":0.029074215761285386,\"relative-y\":0.48035714285714287,\"relative-x2\":0.029074215761285386,\"relative-y2\":0.48035714285714287,\"elapse-time\":1775.4750000312924},{\"relative-x\":0.09563886763580719,\"relative-y\":0.5071428571428571,\"relative-x2\":0.09563886763580719,\"relative-y2\":0.5071428571428571,\"elapse-time\":1850.2400000579655},{\"relative-x\":0.057383320581484314,\"relative-y\":0.5107142857142857,\"relative-x2\":0.057383320581484314,\"relative-y2\":0.5107142857142857,\"elapse-time\":1930.7349999435246},{\"relative-x\":0.0864575363427697,\"relative-y\":0.5223214285714286,\"relative-x2\":0.0864575363427697,\"relative-y2\":0.5223214285714286,\"elapse-time\":2011.4100000355393}]}","realtrial":true,"trial_type":"binary-choice","trial_index":153,"time_elapsed":438568,"internal_node_id":"0.0-16.5-2.5","browser_name":"Chrome","browser_type":"85.0","subject":"e2tp9d4","interaction":"[]","windowWidth":1307,"windowHight":1120},{"rt":null,"stimulus":"<span id=\"calibration_dot_instruction\"></span>","key_press":null,"trial_type":"html-keyboard-response","trial_index":154,"time_elapsed":439073,"internal_node_id":"0.0-16.6-1.6-0.6","browser_name":"Chrome","browser_type":"85.0","subject":"e2tp9d4","interaction":"[]","windowWidth":1307,"windowHight":1120},{"stimulus":["../img/FoodImages/foodStimulus_11.jpg","../img/FoodImages/foodStimulus_28.jpg"],"left_stimulus":"../img/FoodImages/foodStimulus_11.jpg","right_stimulus":"../img/FoodImages/foodStimulus_28.jpg","rt":343.80499995313585,"key_press":74,"choices":["F","J"],"eyeData":"{\"history\":[{\"relative-x\":0.4567712318286152,\"relative-y\":0.4705357142857143,\"relative-x2\":0.4567712318286152,\"relative-y2\":0.4705357142857143,\"elapse-time\":90.72000021114945},{\"relative-x\":0.4996174445294568,\"relative-y\":0.34464285714285714,\"relative-x2\":0.4996174445294568,\"relative-y2\":0.34464285714285714,\"elapse-time\":172.05000016838312},{\"relative-x\":0.4889058913542464,\"relative-y\":0.3875,\"relative-x2\":0.4889058913542464,\"relative-y2\":0.3875,\"elapse-time\":250.24500000290573},{\"relative-x\":0.4720734506503443,\"relative-y\":0.3625,\"relative-x2\":0.4720734506503443,\"relative-y2\":0.3625,\"elapse-time\":332.8700000420213},{\"relative-x\":0.9028309104820199,\"relative-y\":0.4294642857142857,\"relative-x2\":0.9028309104820199,\"relative-y2\":0.4294642857142857,\"elapse-time\":409.91000016219914},{\"relative-x\":0.9571537872991583,\"relative-y\":0.32767857142857143,\"relative-x2\":0.9571537872991583,\"relative-y2\":0.32767857142857143,\"elapse-time\":492.32499999925494},{\"relative-x\":0.9495026778882938,\"relative-y\":0.41160714285714284,\"relative-x2\":0.9495026778882938,\"relative-y2\":0.41160714285714284,\"elapse-time\":572.9800001718104},{\"relative-x\":0.8875286916602907,\"relative-y\":0.39375,\"relative-x2\":0.8875286916602907,\"relative-y2\":0.39375,\"elapse-time\":654.3800001963973},{\"relative-x\":0.811017597551645,\"relative-y\":0.40714285714285714,\"relative-x2\":0.811017597551645,\"relative-y2\":0.40714285714285714,\"elapse-time\":733.089999994263},{\"relative-x\":0.6885998469778117,\"relative-y\":0.41160714285714284,\"relative-x2\":0.6885998469778117,\"relative-y2\":0.41160714285714284,\"elapse-time\":810.7500001788139}]}","realtrial":true,"trial_type":"binary-choice","trial_index":155,"time_elapsed":439918,"internal_node_id":"0.0-16.6-2.6","browser_name":"Chrome","browser_type":"85.0","subject":"e2tp9d4","interaction":"[]","windowWidth":1307,"windowHight":1120},{"rt":null,"stimulus":"<span id=\"calibration_dot_instruction\"></span>","key_press":null,"trial_type":"html-keyboard-response","trial_index":156,"time_elapsed":440419,"internal_node_id":"0.0-16.7-1.7-0.7","browser_name":"Chrome","browser_type":"85.0","subject":"e2tp9d4","interaction":"[]","windowWidth":1307,"windowHight":1120},{"stimulus":["../img/FoodImages/foodStimulus_31.jpg","../img/FoodImages/foodStimulus_17.jpg"],"left_stimulus":"../img/FoodImages/foodStimulus_31.jpg","right_stimulus":"../img/FoodImages/foodStimulus_17.jpg","rt":466.48499998264015,"key_press":70,"choices":["F","J"],"eyeData":"{\"history\":[{\"relative-x\":0.5493496557000765,\"relative-y\":0.4419642857142857,\"relative-x2\":0.5493496557000765,\"relative-y2\":0.4419642857142857,\"elapse-time\":92.65500004403293},{\"relative-x\":0.5286916602907421,\"relative-y\":0.46785714285714286,\"relative-x2\":0.5286916602907421,\"relative-y2\":0.46785714285714286,\"elapse-time\":172.28999990038574},{\"relative-x\":0.5003825554705432,\"relative-y\":0.44375,\"relative-x2\":0.5003825554705432,\"relative-y2\":0.44375,\"elapse-time\":253.74000007286668},{\"relative-x\":0.37337413925019125,\"relative-y\":0.4142857142857143,\"relative-x2\":0.37337413925019125,\"relative-y2\":0.4142857142857143,\"elapse-time\":329.7900001052767},{\"relative-x\":0.3932670237184392,\"relative-y\":0.33839285714285716,\"relative-x2\":0.3932670237184392,\"relative-y2\":0.33839285714285716,\"elapse-time\":409.57999997772276},{\"relative-x\":0.297628156082632,\"relative-y\":0.48928571428571427,\"relative-x2\":0.297628156082632,\"relative-y2\":0.48928571428571427,\"elapse-time\":496.31499988026917},{\"relative-x\":0.09869931140015302,\"relative-y\":0.3982142857142857,\"relative-x2\":0.09869931140015302,\"relative-y2\":0.3982142857142857,\"elapse-time\":571.2800000328571},{\"relative-x\":0.17061973986228002,\"relative-y\":0.3919642857142857,\"relative-x2\":0.17061973986228002,\"relative-y2\":0.3919642857142857,\"elapse-time\":651.5550001058728},{\"relative-x\":0.15761285386381024,\"relative-y\":0.4419642857142857,\"relative-x2\":0.15761285386381024,\"relative-y2\":0.4419642857142857,\"elapse-time\":730.4449998773634},{\"relative-x\":0.08951798010711554,\"relative-y\":0.3830357142857143,\"relative-x2\":0.08951798010711554,\"relative-y2\":0.3830357142857143,\"elapse-time\":810.6949999928474},{\"relative-x\":0.0558530986993114,\"relative-y\":0.32410714285714287,\"relative-x2\":0.0558530986993114,\"relative-y2\":0.32410714285714287,\"elapse-time\":893.3099999558181},{\"relative-x\":0.26931905126243305,\"relative-y\":0.4044642857142857,\"relative-x2\":0.26931905126243305,\"relative-y2\":0.4044642857142857,\"elapse-time\":974.1700000595301}]}","realtrial":true,"trial_type":"binary-choice","trial_index":157,"time_elapsed":441395,"internal_node_id":"0.0-16.7-2.7","browser_name":"Chrome","browser_type":"85.0","subject":"e2tp9d4","interaction":"[]","windowWidth":1307,"windowHight":1120},{"rt":null,"stimulus":"<span id=\"calibration_dot_instruction\"></span>","key_press":null,"trial_type":"html-keyboard-response","trial_index":158,"time_elapsed":441896,"internal_node_id":"0.0-16.8-1.8-0.8","browser_name":"Chrome","browser_type":"85.0","subject":"e2tp9d4","interaction":"[]","windowWidth":1307,"windowHight":1120},{"stimulus":["../img/FoodImages/foodStimulus_32.jpg","../img/FoodImages/foodStimulus_17.jpg"],"left_stimulus":"../img/FoodImages/foodStimulus_32.jpg","right_stimulus":"../img/FoodImages/foodStimulus_17.jpg","rt":504.24999999813735,"key_press":74,"choices":["F","J"],"eyeData":"{\"history\":[{\"relative-x\":0.4751338944146901,\"relative-y\":0.3669642857142857,\"relative-x2\":0.4751338944146901,\"relative-y2\":0.3669642857142857,\"elapse-time\":89.63000006042421},{\"relative-x\":0.586840091813313,\"relative-y\":0.29910714285714285,\"relative-x2\":0.586840091813313,\"relative-y2\":0.29910714285714285,\"elapse-time\":173.18499996326864},{\"relative-x\":0.4751338944146901,\"relative-y\":0.40625,\"relative-x2\":0.4751338944146901,\"relative-y2\":0.40625,\"elapse-time\":250.02999999560416},{\"relative-x\":0.5294567712318287,\"relative-y\":0.32857142857142857,\"relative-x2\":0.5294567712318287,\"relative-y2\":0.32857142857142857,\"elapse-time\":332.33499992638826},{\"relative-x\":0.7253251721499617,\"relative-y\":0.36160714285714285,\"relative-x2\":0.7253251721499617,\"relative-y2\":0.36160714285714285,\"elapse-time\":415.45500000938773},{\"relative-x\":0.8286151491966335,\"relative-y\":0.3419642857142857,\"relative-x2\":0.8286151491966335,\"relative-y2\":0.3419642857142857,\"elapse-time\":489.8250000551343},{\"relative-x\":0.7543993879112472,\"relative-y\":0.3294642857142857,\"relative-x2\":0.7543993879112472,\"relative-y2\":0.3294642857142857,\"elapse-time\":572.7049999404699},{\"relative-x\":0.8125478194338179,\"relative-y\":0.3339285714285714,\"relative-x2\":0.8125478194338179,\"relative-y2\":0.3339285714285714,\"elapse-time\":650.9150001220405},{\"relative-x\":0.7735271614384086,\"relative-y\":0.32321428571428573,\"relative-x2\":0.7735271614384086,\"relative-y2\":0.32321428571428573,\"elapse-time\":730.8000000193715},{\"relative-x\":0.2035195103289977,\"relative-y\":0.36875,\"relative-x2\":0.2035195103289977,\"relative-y2\":0.36875,\"elapse-time\":815.1450001168996},{\"relative-x\":0.23335883703136956,\"relative-y\":0.36875,\"relative-x2\":0.23335883703136956,\"relative-y2\":0.36875,\"elapse-time\":893.3550000656396},{\"relative-x\":0.740627390971691,\"relative-y\":0.2892857142857143,\"relative-x2\":0.740627390971691,\"relative-y2\":0.2892857142857143,\"elapse-time\":973.2450000010431}]}","realtrial":true,"trial_type":"binary-choice","trial_index":159,"time_elapsed":442902,"internal_node_id":"0.0-16.8-2.8","browser_name":"Chrome","browser_type":"85.0","subject":"e2tp9d4","interaction":"[]","windowWidth":1307,"windowHight":1120}]